Folder: Modified-Jubilee/degradation_testing/tensile_testing/PLA/PLA_Water

Note: README.md
# Modified Jubilee  
### Master‚Äôs Thesis Design Files & Documentation  

---

## üìò Overview

This repository contains all design files, mechanical models, firmware, scripts, and supporting documentation used in the development of my Master‚Äôs thesis:

**‚ÄúDESIGN, MODIFICATION, AND EVALUATION OF THE JUBILEE  
OPEN-SOURCE MOTION PLATFORM FOR AUTOMATED DIP COATING‚Äù**

This repository exists to support replication, modification, and extension of the system in alignment with open-source hardware principles.

File: PLA-W-1.csv
"1 _ 1",,
"Time","Force","Stroke"
"sec","N","mm"
"0","0.8718173","0.0001"
"0.05","2.597968","0.02126667"
"0.1","20.24333","0.04656667"
"0.15","40.2991","0.0719"
"0.2","56.66892","0.0965"
"0.25","58.35931","0.1214667"
"0.3","58.36407","0.1468333"
"0.35","58.36407","0.1717"
"0.4","58.35612","0.1964667"
"0.45","58.38394","0.2217"
"0.5","58.34739","0.2466667"
"0.55","58.34818","0.2714667"
"0.6","58.36964","0.2967667"
"0.65","58.42527","0.322"
"0.7","58.52222","0.3465"
"0.75","58.5103","0.3714667"
"0.8","58.5103","0.3969333"
"0.85","58.5262","0.4216667"
"0.9","58.66687","0.4464"
"0.95","61.40947","0.4718333"
"1","75.58823","0.4967333"
"1.05","89.70579","0.5215333"
"1.1","105.2229","0.5467333"
"1.15","124.4974","0.5719"
"1.2","143.3587","0.5965334"
"1.25","161.8369","0.6214"
"1.3","180.3176","0.6467667"
"1.35","198.9953","0.6716"
"1.4","216.8989","0.6963333"
"1.45","234.5379","0.7218"
"1.5","252.4734","0.7467667"
"1.55","269.4607","0.7715"
"1.6","285.7415","0.7968"
"1.65","302.132","0.8219333"
"1.7","317.7071","0.8465334"
"1.75","332.0901","0.8713"
"1.8","345.6362","0.8967667"
"1.85","359.416","0.9216334"
"1.9","371.9385","0.9465"
"1.95","383.9127","0.9718"
"2","395.6183","0.9967"
"2.05","406.75","1.021567"
"2.1","417.5735","1.046767"
"2.15","428.408","1.071933"
"2.2","439.0717","1.096567"
"2.25","449.357","1.1214"
"2.3","459.8307","1.146867"
"2.35","470.4436","1.1716"
"2.4","480.2855","1.1964"
"2.45","489.9542","1.221767"
"2.5","499.8692","1.2466"
"2.55","509.3495","1.2715"
"2.6","518.7694","1.2967"
"2.65","528.2545","1.321867"
"2.7","537.6649","1.3466"
"2.75","546.5499","1.3714"
"2.8","554.5505","1.396833"
"2.85","561.6848","1.4216"
"2.9","567.4402","1.446433"
"2.95","572.1116","1.471867"
"3","575.8167","1.4967"
"3.05","577.5134","1.521467"
"3.1","577.457","1.546667"
"3.15","576.1242","1.571967"
"3.2","572.385","1.5966"
"3.25","564.7985","1.6214"
"3.3","555.3015","1.646867"
"3.35","545.4064","1.671633"
"3.4","535.2839","1.696433"
"3.45","526.3329","1.721867"
"3.5","518.7018","1.746633"
"3.55","511.3784","1.771467"
"3.6","504.5732","1.796733"
"3.65","498.4435","1.821967"
"3.7","492.3749","1.846533"
"3.75","486.4168","1.871367"
"3.8","480.9094","1.896833"
"3.85","475.7174","1.9216"
"3.9","470.0287","1.946467"
"3.95","464.8256","1.971833"
"4","460.0724","1.996733"
"4.05","455.1498","2.021567"
"4.1","450.3965","2.046667"
"4.15","446.1606","2.071933"
"4.2","442.3086","2.0965"
"4.25","438.3095","2.1214"
"4.3","434.924","2.146867"
"4.35","431.8555","2.171667"
"4.4","428.3945","2.196467"
"4.45","425.1758","2.221833"
"4.5","422.3871","2.246767"
"4.55","419.3767","2.271567"
"4.6","416.3567","2.2967"
"4.65","413.8009","2.321933"
"4.7","411.1465","2.3465"
"4.75","408.3101","2.371367"
"4.8","405.8242","2.396867"
"4.85","403.5568","2.421633"
"4.9","400.6577","2.446433"
"4.95","397.9778","2.4719"
"5","395.8654","2.496667"
"5.05","393.614","2.521467"
"5.1","391.4857","2.5467"
"5.15","389.8978","2.572"
"5.2","388.3012","2.596533"
"5.25","386.3486","2.621433"
"5.3","384.8123","2.646833"
"5.35","383.1633","2.6717"
"5.4","381.1653","2.6964"
"5.45","379.2198","2.7218"
"5.5","377.5072","2.7467"
"5.55","375.4791","2.771533"
"5.6","373.1664","2.7967"
"5.65","371.1176","2.821933"
"5.7","368.7771","2.846567"
"5.75","366.2467","2.871467"
"5.8","364.0191","2.896867"
"5.85","360.9586","2.921633"
"5.9","356.8125","2.9464"
"5.95","352.4335","2.9718"
"6","347.72","2.9967"
"6.05","341.2882","3.021533"
"6.1","334.7484","3.0467"
"6.15","330.0198","3.071933"
"6.2","326.182","3.096633"
"6.25","321.8754","3.1215"
"6.3","317.7905","3.146867"
"6.35","314.4296","3.1717"
"6.4","311.1251","3.196467"
"6.45","307.1443","3.221867"
"6.5","303.6777","3.246633"
"6.55","299.9941","3.2715"
"6.6","296.6189","3.296767"
"6.65","293.8032","3.321933"
"6.7","290.7594","3.3465"
"6.75","286.7675","3.3714"
"6.8","281.7822","3.396933"
"6.85","275.9194","3.421733"
"6.9","268.968","3.4465"
"6.95","262.6212","3.4718"
"7","257.4841","3.4967"
"7.05","251.5316","3.5215"
"7.1","243.8291","3.546633"
"7.15","231.5076","3.571933"
"7.2","221.8413","3.596533"
"7.25","215.0798","3.621433"
"7.3","210.1572","3.6469"
"7.35","205.8784","3.671667"
"7.4","200.7373","3.6964"
"7.45","196.3846","3.721833"
"7.5","192.3505","3.746733"
"7.55","188.206","3.7714"
"7.6","184.2244","3.7967"
"7.65","178.0876","3.821933"
"7.7","169.7453","3.846567"
"7.75","161.4078","3.8714"
"7.8","156.6704","3.896867"
"7.85","153.5018","3.9217"
"7.9","150.5478","3.9465"
"7.95","147.6002","3.971833"
"8","143.6281","3.9967"
"8.05","141.0302","4.021567"
"8.1","138.8788","4.046667"
"8.15","138.1699","4.072033"
"8.2","137.0708","4.096567"
"8.25","136.0075","4.121433"
"8.3","135.0156","4.1469"
"8.35","133.8299","4.171667"
"8.4","131.3647","4.1964"
"8.45","129.5368","4.221734"
"8.5","128.2438","4.246634"
"8.55","125.9963","4.271533"
"8.6","123.4945","4.296767"
"8.65","121.5577","4.321967"
"8.7","120.2154","4.346567"
"8.75","119.2125","4.371467"
"8.8","118.1579","4.396833"
"8.85","115.9191","4.4216"
"8.9","112.3428","4.446434"
"8.95","110.8472","4.471833"
"9","109.4413","4.496767"
"9.05","106.1749","4.5215"
"9.1","100.9019","4.546733"
"9.15","96.30362","4.571967"
"9.2","92.32998","4.596567"
"9.25","90.29309","4.621467"
"9.3","87.3224","4.646867"
"9.35","83.70718","4.671566"
"9.4","81.59637","4.6964"
"9.45","77.18324","4.721833"
"9.5","70.92794","4.746667"
"9.55","68.17738","4.771433"
"9.6","63.36212","4.796667"
"9.65","58.72726","4.821967"
"9.7","58.06446","4.8465"
"9.75","52.36864","4.871367"
"9.8","47.89035","4.8969"
"9.85","46.0577","4.921633"
"9.9","45.51093","4.946434"
"9.95","45.31224","4.971767"
"10","45.03409","4.996733"
"10.05","45.0023","5.021533"
"10.1","44.86084","5.046667"
"10.15","44.52546","5.071867"
"10.2","44.51196","5.096567"
"10.25","44.49606","5.121567"
"10.3","44.26877","5.146867"
"10.35","44.26479","5.171667"
"10.4","44.37844","5.196434"
"10.45","44.34586","5.221734"
"10.5","44.40069","5.246733"
"10.55","44.3387","5.2715"
"10.6","43.71881","5.2967"
"10.65","42.40592","5.3219"
"10.7","40.96031","5.346533"
"10.75","39.69272","5.371433"
"10.8","29.12283","5.396867"
"10.85","22.11094","5.421534"
"10.9","22.10538","5.446467"
"10.95","22.07597","5.471767"
"11","22.06246","5.496667"
"11.05","22.08948","5.521533"
"11.1","22.08471","5.546733"
"11.15","22.10458","5.571967"
"11.2","22.09981","5.5965"
"11.25","22.07994","5.6214"
"11.3","22.08074","5.646833"
"11.35","22.08312","5.671667"
"11.4","22.08312","5.696434"
"11.45","22.11094","5.721767"
"11.5","22.10061","5.746733"
"11.55","22.09663","5.7715"
"11.6","22.10299","5.796767"
"11.65","22.10538","5.821967"
"11.7","22.11332","5.846433"
"11.75","22.11571","5.871433"
"11.8","22.09187","5.896867"
"11.85","22.10538","5.921567"
"11.9","22.08233","5.9464"
"11.95","22.08471","5.971767"
"12","22.07836","5.996767"
"12.05","22.09663","6.021533"
"12.1","22.09425","6.046633"
"12.15","22.1022","6.071933"
"12.2","22.09345","6.096533"
"12.25","22.10538","6.121467"
"12.3","22.08948","6.1468"
"12.35","22.09345","6.1717"
"12.4","22.072","6.196467"
"12.45","22.09107","6.221734"
"12.5","22.09981","6.246634"
"12.55","22.09663","6.271433"
"12.6","22.10061","6.296733"
"12.65","22.10697","6.321967"
"12.7","22.08948","6.346533"
"12.75","22.11094","6.371433"
"12.8","22.09345","6.3969"
"12.85","22.08551","6.421767"
"12.9","22.08312","6.4465"
"12.95","22.08869","6.4718"
"13","22.08233","6.496667"
"13.05","22.09345","6.5215"
"13.1","22.08869","6.546667"
"13.15","22.11889","6.571933"
"13.2","22.10299","6.5965"
"13.25","22.09584","6.621433"
"13.3","22.10697","6.6469"
"13.35","22.11889","6.671567"
"13.4","22.09981","6.696434"
"13.45","22.09345","6.7218"
"13.5","22.10061","6.746733"
"13.55","22.09663","6.771433"
"13.6","22.09663","6.796667"
"13.65","22.10458","6.821933"
"13.7","22.10935","6.846533"
"13.75","22.11809","6.871467"
"13.79","22.13001","6.887533"

File: PLA-W-2.csv
"1 _ 1",,
"Time","Force","Stroke"
"sec","N","mm"
"0","0.3623962","0.0001"
"0.04","0.6651878","0.01596667"
"0.08","9.253025","0.0365"
"0.12","21.32416","0.05643333"
"0.16","25.77623","0.0764"
"0.2","33.6647","0.09676667"
"0.24","34.87984","0.1168"
"0.28","34.91004","0.1364667"
"0.32","35.22714","0.1565"
"0.36","37.74802","0.1767333"
"0.4","40.09088","0.1968"
"0.44","42.27797","0.2163667"
"0.48","46.52739","0.2364333"
"0.52","50.93972","0.2567"
"0.56","51.33708","0.2769333"
"0.6","51.41417","0.2964667"
"0.64","51.43483","0.3163333"
"0.68","51.70266","0.3366667"
"0.72","51.81392","0.3569"
"0.76","51.45311","0.3766667"
"0.8","51.54133","0.3963"
"0.84","51.46821","0.4167333"
"0.88","51.8028","0.4368"
"0.92","52.29076","0.4567"
"0.96","57.38894","0.4765"
"1","63.78492","0.4966"
"1.04","76.9035","0.5167667"
"1.08","91.22054","0.5367333"
"1.12","103.7939","0.5565667"
"1.16","114.998","0.5763333"
"1.2","126.4191","0.5968"
"1.24","139.3255","0.6167333"
"1.28","153.4955","0.6364"
"1.32","168.2409","0.6563333"
"1.36","182.4975","0.6767667"
"1.4","196.5817","0.6968333"
"1.44","210.7819","0.7164"
"1.48","224.5919","0.7364"
"1.52","238.3168","0.7566667"
"1.56","252.161","0.7769"
"1.6","265.7135","0.7965"
"1.64","278.7765","0.8163334"
"1.68","291.9014","0.8365667"
"1.72","305.2179","0.8568"
"1.76","318.2411","0.8766333"
"1.8","330.8169","0.8963667"
"1.84","342.7466","0.9167"
"1.88","354.0675","0.9367667"
"1.92","364.84","0.9566"
"1.96","375.224","0.9765"
"2","385.464","0.9966"
"2.04","395.1748","1.016733"
"2.08","404.8658","1.036767"
"2.12","414.3651","1.056633"
"2.16","423.4123","1.076333"
"2.2","432.3141","1.0968"
"2.24","441.3581","1.116733"
"2.28","449.9769","1.1365"
"2.32","457.9322","1.1564"
"2.36","465.7944","1.1768"
"2.4","473.9873","1.196667"
"2.44","481.8289","1.216267"
"2.48","489.4352","1.2364"
"2.52","497.1703","1.256633"
"2.56","504.965","1.276833"
"2.6","512.3504","1.296467"
"2.64","519.46","1.316433"
"2.68","526.46","1.3366"
"2.72","533.1779","1.356933"
"2.76","540.0332","1.376567"
"2.8","546.1836","1.396333"
"2.84","551.5003","1.416667"
"2.88","556.0819","1.436733"
"2.92","559.9014","1.456633"
"2.96","562.8975","1.4764"
"3","565.2476","1.496467"
"3.04","567.1771","1.516767"
"3.08","568.1944","1.536767"
"3.12","568.0052","1.556633"
"3.16","566.4929","1.5764"
"3.2","563.4642","1.596733"
"3.24","558.5146","1.616767"
"3.28","551.6235","1.636467"
"3.32","543.4775","1.656533"
"3.36","535.6367","1.676833"
"3.4","528.4206","1.696733"
"3.44","521.458","1.716367"
"3.48","514.9659","1.736533"
"3.52","509.1763","1.756633"
"3.56","503.7848","1.776933"
"3.6","498.604","1.796533"
"3.64","493.4875","1.816333"
"3.68","488.7748","1.8365"
"3.72","484.2981","1.856933"
"3.76","480.0471","1.8765"
"3.8","475.3343","1.8964"
"3.84","470.8179","1.9167"
"3.88","466.4954","1.936767"
"3.92","462.2165","1.956633"
"3.96","457.4569","1.976533"
"4","452.6774","1.996633"
"4.04","448.0561","2.016767"
"4.08","443.3966","2.036733"
"4.12","438.7299","2.056567"
"4.16","433.9075","2.076367"
"4.2","429.3918","2.096767"
"4.24","425.0956","2.1167"
"4.28","420.5235","2.1365"
"4.32","415.7678","2.156467"
"4.36","411.0742","2.1768"
"4.4","406.7024","2.1968"
"4.44","402.1192","2.2164"
"4.48","396.7555","2.236467"
"4.52","390.6624","2.2566"
"4.56","384.779","2.276833"
"4.6","379.2198","2.2965"
"4.64","373.8824","2.316367"
"4.68","369.2993","2.3366"
"4.72","365.2437","2.3569"
"4.76","361.0317","2.376533"
"4.8","355.9868","2.396367"
"4.84","350.9736","2.416733"
"4.88","345.8746","2.436667"
"4.92","340.4236","2.4566"
"4.96","334.87","2.476433"
"5","329.5358","2.496533"
"5.04","324.1587","2.516833"
"5.08","318.145","2.536767"
"5.12","310.8104","2.5565"
"5.16","303.2486","2.5764"
"5.2","296.0833","2.596767"
"5.24","289.549","2.6168"
"5.28","282.7326","2.6365"
"5.32","275.2375","2.656433"
"5.36","268.5682","2.676767"
"5.4","262.5831","2.6968"
"5.44","256.5877","2.7164"
"5.48","249.1577","2.736467"
"5.52","241.0674","2.7567"
"5.56","232.4613","2.7769"
"5.6","224.6674","2.796533"
"5.64","216.4022","2.816333"
"5.68","206.8154","2.836667"
"5.72","197.2039","2.8569"
"5.76","190.0411","2.8766"
"5.8","183.8573","2.896367"
"5.84","176.4377","2.916667"
"5.88","165.7661","2.936633"
"5.92","156.3597","2.9567"
"5.96","149.5735","2.976467"
"6","142.3256","2.996567"
"6.04","136.8332","3.016767"
"6.08","130.9713","3.036767"
"6.12","122.3127","3.0565"
"6.16","116.0487","3.076467"
"6.2","112.8689","3.096733"
"6.24","109.5716","3.116733"
"6.28","105.8229","3.136467"
"6.32","103.2678","3.156533"
"6.36","101.3994","3.176767"
"6.4","99.79407","3.196733"
"6.44","97.85732","3.216367"
"6.48","95.36028","3.236467"
"6.52","91.91592","3.256633"
"6.56","88.99927","3.276933"
"6.6","87.19603","3.2965"
"6.64","85.16232","3.3163"
"6.68","82.97762","3.336667"
"6.72","80.18891","3.356933"
"6.76","76.71594","3.376633"
"6.8","74.16487","3.396367"
"6.84","72.45382","3.4167"
"6.88","71.42305","3.436733"
"6.92","70.19202","3.456667"
"6.96","68.31567","3.4765"
"7","67.00913","3.496567"
"7.04","65.25278","3.516767"
"7.08","64.09724","3.536733"
"7.12","63.5759","3.5564"
"7.16","63.05377","3.576433"
"7.2","62.24712","3.596767"
"7.24","61.68127","3.616833"
"7.28","60.52653","3.636433"
"7.32","59.14847","3.656467"
"7.36","58.03823","3.676767"
"7.4","57.46921","3.696867"
"7.44","57.41755","3.7164"
"7.48","57.31742","3.736433"
"7.52","57.23953","3.756567"
"7.56","56.9725","3.776867"
"7.6","56.17698","3.796567"
"7.64","55.0731","3.816333"
"7.68","54.57322","3.8366"
"7.72","54.45719","3.856867"
"7.76","54.3642","3.876633"
"7.8","54.1989","3.896367"
"7.84","53.83094","3.916767"
"7.88","52.85422","3.936667"
"7.92","51.68676","3.9566"
"7.96","51.26556","3.976467"
"8","50.94687","3.996633"
"8.04","50.45652","4.016833"
"8.08","50.05677","4.0368"
"8.12","42.44963","4.056567"
"8.16","14.11756","4.076467"
"8.2","13.7798","4.096734"
"8.24","13.76231","4.1168"
"8.28","13.77583","4.136434"
"8.32","13.82033","4.156466"
"8.36","13.84576","4.176733"
"8.4","13.81159","4.1967"
"8.44","13.79808","4.216367"
"8.48","13.80046","4.2365"
"8.52","13.79569","4.256633"
"8.56","13.72973","4.2769"
"8.6","13.69953","4.296566"
"8.64","13.72099","4.316367"
"8.68","13.73847","4.336667"
"8.72","13.70192","4.356867"
"8.76","13.72019","4.3765"
"8.8","13.75755","4.3963"
"8.84","13.78059","4.416733"
"8.88","13.76549","4.436733"
"8.92","13.80046","4.456733"
"8.96","13.82907","4.476467"
"9","13.8092","4.496567"
"9.04","13.80523","4.5168"
"9.08","13.76867","4.5368"
"9.12","13.74881","4.556567"
"9.16","13.74642","4.5765"
"9.2","13.70907","4.596734"
"9.24","13.72496","4.616767"
"9.28","13.72099","4.636467"
"9.32","13.72655","4.656533"
"9.36","13.74483","4.6768"
"9.4","13.76231","4.696767"
"9.44","13.80761","4.716367"
"9.48","13.80682","4.7364"
"9.52","13.78775","4.7566"
"9.56","13.79331","4.776867"
"9.6","13.79649","4.796467"
"9.64","13.75755","4.816333"
"9.67","13.73529","4.8256"

File: PLA-W-3.csv
"1 _ 1",,
"Time","Force","Stroke"
"sec","N","mm"
"0","0.4553795","6.666667E-05"
"0.03","0.4839897","0.01076667"
"0.06","2.823671","0.0261"
"0.09","11.66423","0.0412"
"0.12","22.39068","0.0563"
"0.15","32.91925","0.0716"
"0.18","43.2992","0.08673333"
"0.21","53.38907","0.1016667"
"0.24","62.05241","0.1165667"
"0.27","64.50097","0.1314333"
"0.3","64.54547","0.1464667"
"0.33","64.55819","0.1617"
"0.36","64.56613","0.1768333"
"0.39","64.58759","0.1917667"
"0.42","64.6011","0.2064333"
"0.45","64.62415","0.2213333"
"0.48","64.6321","0.2366"
"0.51","64.60985","0.2517333"
"0.54","64.58759","0.2669667"
"0.57","64.59236","0.2817"
"0.6","64.6011","0.2964667"
"0.63","64.60985","0.3114333"
"0.66","64.64163","0.3266667"
"0.69","64.65912","0.3417333"
"0.72","64.71555","0.3567"
"0.75","64.74654","0.3714333"
"0.78","64.76164","0.3864333"
"0.81","64.77991","0.4016667"
"0.84","64.80376","0.4167333"
"0.87","64.79581","0.4319"
"0.9","64.79263","0.4467333"
"0.93","64.79025","0.4615667"
"0.96","65.00244","0.4763667"
"0.99","67.40968","0.4916667"
"1.02","72.95211","0.5067667"
"1.05","79.75896","0.5217333"
"1.08","89.79718","0.5363667"
"1.11","100.3877","0.5513"
"1.14","110.2678","0.5664333"
"1.17","120.8528","0.5816666"
"1.2","131.4672","0.5968"
"1.23","142.165","0.6116667"
"1.26","152.6125","0.6264667"
"1.29","162.7692","0.6413667"
"1.32","172.9242","0.6566333"
"1.35","183.2843","0.6717333"
"1.38","193.6658","0.6868"
"1.41","203.8129","0.7015333"
"1.44","213.7637","0.7165334"
"1.47","223.7296","0.7313"
"1.5","233.7321","0.7465"
"1.53","243.8426","0.7617667"
"1.56","253.9349","0.7767"
"1.59","263.9254","0.7914667"
"1.62","273.6203","0.8064333"
"1.65","283.1777","0.8217"
"1.68","292.6819","0.8369667"
"1.71","302.1169","0.8517667"
"1.74","311.4128","0.8665333"
"1.77","320.5355","0.8815333"
"1.8","329.4667","0.8964667"
"1.83","338.4153","0.9116334"
"1.86","347.391","0.9268"
"1.89","356.2919","0.9417334"
"1.92","364.9886","0.9565"
"1.95","373.3897","0.9712334"
"1.98","381.6589","0.9865"
"2.01","389.7977","1.0017"
"2.04","397.6671","1.016933"
"2.07","405.0771","1.031633"
"2.1","412.0159","1.046567"
"2.13","418.5963","1.061433"
"2.16","425.0709","1.076667"
"2.19","431.5448","1.0918"
"2.22","437.9431","1.106567"
"2.25","444.0586","1.121367"
"2.28","449.9396","1.136367"
"2.31","455.8023","1.151533"
"2.34","461.6833","1.166633"
"2.37","467.6565","1.1818"
"2.4","473.4612","1.196533"
"2.43","479.1307","1.211567"
"2.46","484.6827","1.226367"
"2.49","490.3293","1.241633"
"2.52","495.9631","1.2568"
"2.55","501.5739","1.271767"
"2.58","507.0567","1.2864"
"2.61","512.1771","1.301333"
"2.64","517.2729","1.316467"
"2.67","522.2893","1.3318"
"2.7","527.2874","1.346667"
"2.73","532.0898","1.361667"
"2.76","536.5356","1.3764"
"2.79","540.6252","1.391467"
"2.82","544.5139","1.4066"
"2.85","548.2888","1.421767"
"2.88","551.7777","1.436967"
"2.91","554.9089","1.4516"
"2.94","557.4552","1.4664"
"2.97","559.6384","1.481433"
"3","561.6784","1.4965"
"3.03","563.5524","1.511833"
"3.06","564.9304","1.5267"
"3.09","565.7355","1.541433"
"3.12","565.8372","1.556433"
"3.15","565.8118","1.571767"
"3.18","565.6433","1.5869"
"3.21","565.2563","1.601767"
"3.24","564.0403","1.616533"
"3.27","561.645","1.631433"
"3.3","558.0687","1.646567"
"3.33","553.6786","1.661633"
"3.36","548.7371","1.6768"
"3.39","543.259","1.691733"
"3.42","537.3605","1.706467"
"3.45","531.0615","1.721367"
"3.48","524.8356","1.7364"
"3.51","518.5914","1.7517"
"3.54","512.3997","1.767067"
"3.57","506.1642","1.781567"
"3.6","499.5807","1.796533"
"3.63","492.8064","1.811433"
"3.66","486.2936","1.8267"
"3.69","479.943","1.841767"
"3.72","473.7107","1.8567"
"3.75","467.5341","1.871367"
"3.78","461.5323","1.886467"
"3.81","455.9716","1.901533"
"3.84","451.0236","1.916667"
"3.87","446.678","1.931833"
"3.9","442.9499","1.9467"
"3.93","439.6089","1.961567"
"3.96","436.5269","1.976367"
"3.99","433.8972","1.991633"
"4.02","431.7371","2.0068"
"4.05","429.6986","2.021767"
"4.08","427.7595","2.036467"
"4.11","425.5994","2.051333"
"4.14","423.2812","2.0665"
"4.17","421.0154","2.0818"
"4.2","418.7775","2.096733"
"4.23","416.3098","2.111667"
"4.26","413.8128","2.126467"
"4.29","410.7499","2.141467"
"4.32","407.4415","2.156667"
"4.35","404.1998","2.171733"
"4.38","400.9207","2.1869"
"4.41","397.4803","2.201533"
"4.44","393.2977","2.2165"
"4.47","388.732","2.231333"
"4.5","383.8587","2.246633"
"4.53","378.774","2.261867"
"4.56","373.6997","2.276667"
"4.59","368.4402","2.291467"
"4.62","362.4995","2.3064"
"4.65","354.8614","2.321767"
"4.68","345.6577","2.3369"
"4.71","336.8656","2.3518"
"4.74","329.3753","2.366467"
"4.77","323.2749","2.381367"
"4.8","317.9645","2.396433"
"4.83","312.7678","2.411667"
"4.86","306.7708","2.426767"
"4.89","299.1867","2.4417"
"4.92","291.5001","2.456533"
"4.95","283.9383","2.471267"
"4.98","276.0553","2.4865"
"5.01","267.9284","2.5018"
"5.04","257.8116","2.516933"
"5.07","243.9896","2.531667"
"5.1","229.1044","2.546567"
"5.13","214.6331","2.561433"
"5.16","202.4539","2.5767"
"5.19","190.1301","2.591733"
"5.22","181.1059","2.6067"
"5.25","175.4276","2.621433"
"5.28","171.6359","2.6364"
"5.31","168.55","2.651567"
"5.34","166.2517","2.666667"
"5.37","164.5954","2.681933"
"5.4","162.8518","2.696733"
"5.43","160.1831","2.7116"
"5.46","156.676","2.7264"
"5.49","153.3055","2.741667"
"5.52","149.4757","2.756867"
"5.55","145.0769","2.771833"
"5.58","140.8172","2.786433"
"5.61","135.6475","2.801367"
"5.64","129.2777","2.8165"
"5.67","121.8406","2.8317"
"5.7","114.8963","2.8467"
"5.73","110.1518","2.861667"
"5.76","106.2711","2.876467"
"5.79","102.8132","2.891467"
"5.82","100.4656","2.906633"
"5.85","98.03056","2.921767"
"5.88","96.16693","2.9369"
"5.91","94.3025","2.9516"
"5.94","92.55489","2.9664"
"5.97","90.97894","2.9814"
"6","88.28401","2.9966"
"6.03","84.8039","3.011833"
"6.06","82.72092","3.026633"
"6.09","81.62737","3.041433"
"6.12","80.86443","3.056367"
"6.15","79.96877","3.071733"
"6.18","78.81562","3.0868"
"6.21","76.70641","3.1017"
"6.24","74.70052","3.1165"
"6.27","72.93939","3.131433"
"6.3","71.20848","3.1465"
"6.33","69.04681","3.161667"
"6.36","66.47348","3.176833"
"6.39","64.65674","3.191867"
"6.42","50.0234","3.206433"
"6.45","29.0966","3.221267"
"6.48","28.52758","3.2366"
"6.51","28.42506","3.251733"
"6.54","28.42903","3.266933"
"6.57","28.48387","3.281633"
"6.6","28.49182","3.296533"
"6.63","28.51248","3.3115"
"6.66","28.50533","3.326733"
"6.69","28.4942","3.3417"
"6.72","28.49499","3.3567"
"6.75","28.49658","3.3714"
"6.78","28.48546","3.386367"
"6.81","28.49022","3.401633"
"6.84","28.45128","3.416633"
"6.87","28.39565","3.431867"
"6.9","28.41632","3.4467"
"6.93","28.45844","3.461533"
"6.96","28.43698","3.4764"
"6.99","28.4187","3.491633"
"7.02","28.39645","3.506833"
"7.05","28.41473","3.521833"
"7.08","28.44493","3.536433"
"7.11","28.44969","3.551233"
"7.14","28.45685","3.566467"
"7.17","28.45605","3.5817"
"7.2","28.45923","3.596767"
"7.23","28.48705","3.611633"
"7.26","28.49897","3.626467"
"7.29","28.46956","3.641367"
"7.32","28.44572","3.6566"
"7.35","28.41473","3.671767"
"7.38","28.41632","3.686867"
"7.41","28.40916","3.7016"
"7.44","28.40122","3.716467"
"7.47","28.39883","3.731367"
"7.49","28.40122","3.7362"