Folder: Modified-Jubilee/degradation_testing/tensile_testing/PLA/PLA_Control

Note: README.md
# Modified Jubilee  
### Master‚Äôs Thesis Design Files & Documentation  

---

## üìò Overview

This repository contains all design files, mechanical models, firmware, scripts, and supporting documentation used in the development of my Master‚Äôs thesis:

**‚ÄúDESIGN, MODIFICATION, AND EVALUATION OF THE JUBILEE  
OPEN-SOURCE MOTION PLATFORM FOR AUTOMATED DIP COATING‚Äù**

This repository exists to support replication, modification, and extension of the system in alignment with open-source hardware principles.

File: P-run-1.csv
"1 _ 1",,
"Time","Force","Stroke"
"sec","N","mm"
"0","-3.802776","0.0001"
"0.04","-3.466606","0.0157"
"0.08","4.328092","0.0361"
"0.12","19.13945","0.05653333"
"0.16","34.21307","0.07683334"
"0.2","47.70438","0.09636667"
"0.24","55.18198","0.1164"
"0.28","54.3642","0.1367"
"0.32","51.19165","0.1568667"
"0.36","52.61183","0.1764667"
"0.4","58.6621","0.1964667"
"0.44","58.62236","0.2166"
"0.48","58.4952","0.2369"
"0.52","58.59296","0.2566"
"0.56","59.0388","0.2763667"
"0.6","58.89893","0.2966"
"0.64","58.78925","0.3169333"
"0.68","58.74872","0.3366333"
"0.72","58.67561","0.3563333"
"0.76","58.70183","0.3766"
"0.8","58.83773","0.3969"
"0.84","58.99668","0.4167"
"0.88","60.79753","0.4364333"
"0.92","66.77866","0.4565333"
"0.96","72.47527","0.4767667"
"1","78.6368","0.4967333"
"1.04","83.63803","0.5166"
"1.08","91.51141","0.5364"
"1.12","103.1693","0.5566"
"1.16","116.7202","0.5768"
"1.2","130.1694","0.5963666"
"1.24","143.9333","0.6164667"
"1.28","158.0771","0.6366"
"1.32","171.9634","0.6567333"
"1.36","186.127","0.6763667"
"1.4","200.0403","0.6964"
"1.44","213.9044","0.7166667"
"1.48","228.099","0.7368667"
"1.52","241.8971","0.7566333"
"1.56","255.15","0.7763667"
"1.6","268.4299","0.7967"
"1.64","281.8886","0.8168667"
"1.68","295.2592","0.8367"
"1.72","308.1202","0.8563"
"1.76","320.828","0.8766"
"1.8","333.6596","0.8968334"
"1.84","346.3141","0.9166667"
"1.88","358.7556","0.9365333"
"1.92","371.0063","0.9565"
"1.96","383.4065","0.9767333"
"2","395.6079","0.9967334"
"2.04","407.4073","1.0166"
"2.08","418.6384","1.0363"
"2.12","429.1757","1.056667"
"2.16","439.3983","1.076833"
"2.2","449.1568","1.096367"
"2.24","458.0609","1.1164"
"2.28","466.5089","1.1367"
"2.32","474.6501","1.1568"
"2.36","481.751","1.1764"
"2.4","487.6359","1.1963"
"2.44","492.5831","1.216633"
"2.48","496.8071","1.236833"
"2.52","500.4811","1.256533"
"2.56","503.8428","1.2764"
"2.6","507.373","1.296533"
"2.64","510.9835","1.316833"
"2.68","514.5272","1.336733"
"2.72","517.5201","1.3564"
"2.76","519.9758","1.3767"
"2.8","522.3696","1.396867"
"2.84","524.644","1.4167"
"2.88","526.5021","1.436533"
"2.92","528.179","1.4565"
"2.96","529.9091","1.476733"
"3","531.5383","1.496733"
"3.04","532.9696","1.516633"
"3.08","534.0226","1.5363"
"3.12","535.1901","1.556633"
"3.16","536.569","1.576833"
"3.2","537.502","1.596433"
"3.24","537.61","1.616433"
"3.28","537.494","1.636733"
"3.32","537.258","1.656733"
"3.36","535.9594","1.676367"
"3.4","533.5117","1.696367"
"3.44","530.262","1.7166"
"3.48","526.5188","1.7368"
"3.52","522.2463","1.756567"
"3.56","517.5026","1.7764"
"3.6","512.8837","1.796633"
"3.64","508.5214","1.816933"
"3.68","504.1846","1.8366"
"3.72","499.347","1.8564"
"3.76","494.6494","1.876633"
"3.8","490.0845","1.896833"
"3.84","485.4004","1.9166"
"3.88","480.121","1.9365"
"3.92","474.5984","1.956467"
"3.96","469.1092","1.9768"
"4","463.6296","1.996833"
"4.04","457.8225","2.016667"
"4.08","451.7245","2.036333"
"4.12","446.0208","2.056667"
"4.16","441.0203","2.076867"
"4.2","436.0501","2.096433"
"4.24","430.7596","2.1164"
"4.28","426.0182","2.136767"
"4.32","422.1241","2.156767"
"4.36","418.4691","2.1764"
"4.4","415.2083","2.196433"
"4.44","412.4085","2.216633"
"4.48","410.0664","2.2369"
"4.52","407.5925","2.256567"
"4.56","404.8769","2.276333"
"4.6","402.7343","2.296567"
"4.64","401.14","2.316833"
"4.68","399.9416","2.336633"
"4.72","398.4435","2.356333"
"4.76","396.8962","2.376567"
"4.8","395.6032","2.3968"
"4.84","394.2458","2.416667"
"4.88","392.0229","2.4365"
"4.92","389.7691","2.456467"
"4.96","387.8268","2.4768"
"5","386.0458","2.4968"
"5.04","383.7633","2.516567"
"5.08","381.4324","2.5364"
"5.12","379.4416","2.556667"
"5.16","377.7218","2.576833"
"5.2","375.8867","2.5964"
"5.24","373.6687","2.6165"
"5.28","371.6779","2.6367"
"5.32","369.4749","2.656867"
"5.36","365.9836","2.676433"
"5.4","362.2556","2.696367"
"5.44","358.8112","2.716567"
"5.48","355.8596","2.7368"
"5.52","352.8039","2.756633"
"5.56","348.7213","2.776333"
"5.6","344.4998","2.7966"
"5.64","340.1987","2.8168"
"5.68","335.0846","2.8367"
"5.72","328.7292","2.8564"
"5.76","321.6807","2.876667"
"5.8","315.9586","2.896733"
"5.84","310.653","2.916567"
"5.88","305.3602","2.9365"
"5.92","301.2204","2.956433"
"5.96","297.5369","2.9768"
"6","293.3192","2.996767"
"6.04","288.9124","3.0165"
"6.08","283.8898","3.036367"
"6.12","279.7628","3.0567"
"6.16","275.108","3.0769"
"6.2","268.5539","3.0964"
"6.24","262.715","3.116433"
"6.28","256.78","3.136767"
"6.32","250.9793","3.1568"
"6.36","243.7019","3.1765"
"6.4","233.3967","3.196433"
"6.44","219.7941","3.2166"
"6.48","208.3421","3.236867"
"6.52","194.9239","3.256633"
"6.56","184.6568","3.2763"
"6.6","176.7683","3.296667"
"6.64","170.7299","3.316867"
"6.68","166.1507","3.336667"
"6.72","160.8014","3.356333"
"6.76","152.0856","3.376567"
"6.8","146.354","3.3967"
"6.84","141.6866","3.416667"
"6.88","137.2051","3.4365"
"6.92","133.6789","3.4565"
"6.96","131.7604","3.4768"
"7","130.0915","3.4968"
"7.04","127.5277","3.5165"
"7.08","124.2097","3.536333"
"7.12","120.7995","3.556633"
"7.16","117.2368","3.576767"
"7.2","111.6451","3.596367"
"7.24","103.8289","3.616433"
"7.28","97.32565","3.636767"
"7.32","92.68761","3.656833"
"7.36","86.0699","3.6764"
"7.4","78.88953","3.696467"
"7.44","73.52591","3.716667"
"7.48","69.27888","3.7369"
"7.52","64.23394","3.7566"
"7.56","57.71875","3.776367"
"7.6","26.60831","3.796667"
"7.64","22.56711","3.816867"
"7.68","22.40419","3.8366"
"7.72","22.26988","3.856367"
"7.76","22.22379","3.8767"
"7.8","22.223","3.8967"
"7.84","22.22061","3.9166"
"7.88","22.22141","3.936467"
"7.92","22.24922","3.956467"
"7.96","22.26114","3.976733"
"8","22.27624","3.9967"
"8.04","22.29214","4.016533"
"8.08","22.32552","4.036467"
"8.12","22.32393","4.056667"
"8.16","22.30326","4.0769"
"8.2","22.30088","4.0964"
"8.24","22.26114","4.116367"
"8.28","22.21902","4.136667"
"8.32","22.20472","4.1568"
"8.36","22.21266","4.176467"
"8.4","22.24286","4.196333"
"8.44","22.2381","4.2166"
"8.48","22.26114","4.236867"
"8.52","22.29452","4.256633"
"8.56","22.31677","4.276333"
"8.6","22.33903","4.2967"
"8.64","22.30962","4.316833"
"8.68","22.29849","4.336733"
"8.72","22.28578","4.3564"
"8.76","22.24286","4.376667"
"8.8","22.25002","4.396733"
"8.84","22.22935","4.416667"
"8.88","22.24286","4.4365"
"8.92","22.24286","4.4565"
"8.96","22.27624","4.4768"
"9","22.28578","4.4968"
"9.04","22.29691","4.516567"
"9.08","22.31916","4.536367"
"9.12","22.30167","4.556667"
"9.16","22.31201","4.576867"
"9.2","22.29691","4.5964"
"9.24","22.27386","4.616367"
"9.28","22.27227","4.6367"
"9.32","22.2524","4.6568"
"9.36","22.2381","4.6764"
"9.4","22.24048","4.6964"
"9.44","22.26353","4.716633"
"9.47","22.26353","4.726133"

File: P-run-2.csv
"1 _ 1",,
"Time","Force","Stroke"
"sec","N","mm"
"0","-3.696283","6.666667E-05"
"0.03","-3.64701","0.01086667"
"0.06","-1.015663","0.02603333"
"0.09","9.123485","0.04123333"
"0.12","21.15011","0.05656667"
"0.15","32.2334","0.07173333"
"0.18","40.49063","0.08673333"
"0.21","43.0433","0.1014"
"0.24","41.24006","0.1163667"
"0.27","41.48006","0.1314667"
"0.3","44.60653","0.1466333"
"0.33","46.4805","0.1619"
"0.36","46.58143","0.1767333"
"0.39","46.87786","0.1915667"
"0.42","46.93508","0.2063667"
"0.45","46.70222","0.2216667"
"0.48","46.76819","0.2368667"
"0.51","46.83733","0.2519667"
"0.54","46.93111","0.2665333"
"0.57","46.95177","0.2814"
"0.6","46.87945","0.2965"
"0.63","46.83971","0.3116667"
"0.66","46.81826","0.3267334"
"0.69","46.82859","0.3416667"
"0.72","46.89614","0.3565"
"0.75","46.95733","0.3714667"
"0.78","47.43338","0.3866333"
"0.81","49.69756","0.4018667"
"0.84","51.08516","0.417"
"0.87","52.95753","0.4317333"
"0.9","57.60114","0.4465"
"0.93","63.90969","0.4614334"
"0.96","70.46858","0.4765667"
"0.99","76.6937","0.4918667"
"1.02","82.91721","0.5067334"
"1.05","90.78344","0.5213667"
"1.08","100.5276","0.5363667"
"1.11","111.8223","0.5516"
"1.14","123.2402","0.5667667"
"1.17","133.9968","0.5818334"
"1.2","144.9196","0.5965667"
"1.23","155.948","0.6114333"
"1.26","166.7023","0.6264667"
"1.29","177.3747","0.6416333"
"1.32","187.9954","0.6567333"
"1.35","198.4866","0.6717667"
"1.38","208.8332","0.6864667"
"1.41","218.9056","0.7013667"
"1.44","228.9613","0.7164667"
"1.47","238.9272","0.7316334"
"1.5","249.0489","0.7470334"
"1.53","259.1364","0.7616333"
"1.56","268.9226","0.7765"
"1.59","278.3362","0.7914333"
"1.62","287.7371","0.8066667"
"1.65","297.2094","0.8218334"
"1.68","306.5483","0.8366667"
"1.71","315.3817","0.8514"
"1.74","323.569","0.8664333"
"1.77","331.6315","0.8815667"
"1.8","339.3308","0.8967"
"1.83","346.8156","0.9119"
"1.86","354.0921","0.9267667"
"1.89","360.9761","0.9416"
"1.92","367.4777","0.9563333"
"1.95","373.7593","0.9716"
"1.98","379.959","0.9868667"
"2.01","385.9075","1.001867"
"2.04","391.6764","1.016567"
"2.07","397.1299","1.031467"
"2.1","402.4625","1.046533"
"2.13","407.7109","1.061733"
"2.16","412.9624","1.076733"
"2.19","418.1449","1.0917"
"2.22","423.2915","1.106467"
"2.25","428.2236","1.121367"
"2.28","433.1295","1.136667"
"2.31","438.1792","1.151633"
"2.34","443.2694","1.166833"
"2.37","448.3136","1.181533"
"2.4","453.2433","1.196467"
"2.43","458.0561","1.211333"
"2.46","463.0121","1.226533"
"2.49","468.0761","1.241833"
"2.52","473.1536","1.2567"
"2.55","478.0761","1.2715"
"2.58","482.7205","1.286333"
"2.61","487.3705","1.301633"
"2.64","492.0745","1.316933"
"2.67","496.9454","1.331733"
"2.7","501.6859","1.3466"
"2.73","506.3271","1.361533"
"2.76","510.8992","1.376433"
"2.79","515.6096","1.391633"
"2.82","520.5631","1.4068"
"2.85","525.4937","1.421833"
"2.88","530.1897","1.436567"
"2.91","534.5885","1.451267"
"2.94","538.9031","1.4665"
"2.97","543.228","1.481667"
"3","547.4027","1.496933"
"3.03","551.153","1.5117"
"3.06","554.5084","1.5266"
"3.09","557.4584","1.541467"
"3.12","560.2869","1.556833"
"3.15","562.9412","1.571733"
"3.18","565.4502","1.586767"
"3.21","567.619","1.601467"
"3.24","569.3317","1.616433"
"3.27","570.4721","1.631533"
"3.3","570.8766","1.6467"
"3.33","570.2702","1.661933"
"3.36","567.3766","1.676767"
"3.39","560.9957","1.691567"
"3.42","551.3398","1.706333"
"3.45","539.5134","1.721633"
"3.48","526.2494","1.736867"
"3.51","512.0317","1.751933"
"3.54","497.1282","1.7665"
"3.57","482.1292","1.781433"
"3.6","468.1261","1.7964"
"3.63","456.0407","1.8117"
"3.66","446.3474","1.826667"
"3.69","438.6989","1.8417"
"3.72","432.6479","1.8565"
"3.75","427.8262","1.871433"
"3.78","424.1276","1.8866"
"3.81","421.3786","1.901867"
"3.84","419.4013","1.917"
"3.87","417.7451","1.9317"
"3.9","416.2272","1.9464"
"3.93","414.8221","1.961367"
"3.96","413.8168","1.976533"
"3.99","413.1595","1.9918"
"4.02","412.5818","2.006667"
"4.05","411.8633","2.021367"
"4.08","410.7444","2.036333"
"4.11","409.5348","2.051667"
"4.14","408.3331","2.0669"
"4.17","406.913","2.081833"
"4.2","404.8371","2.096633"
"4.23","402.2058","2.111533"
"4.26","399.0253","2.126467"
"4.29","395.7597","2.1417"
"4.32","392.5729","2.156833"
"4.35","389.0467","2.171867"
"4.38","385.1692","2.186467"
"4.41","380.6981","2.201333"
"4.44","375.4425","2.216533"
"4.47","369.2961","2.231767"
"4.5","361.7565","2.246933"
"4.53","352.2865","2.261767"
"4.56","342.0997","2.2766"
"4.59","332.6591","2.291533"
"4.62","324.5711","2.306767"
"4.65","317.9121","2.321733"
"4.68","311.923","2.3367"
"4.71","306.6071","2.351367"
"4.74","302.2885","2.3664"
"4.77","298.5199","2.381433"
"4.8","294.8594","2.396633"
"4.83","291.5088","2.411867"
"4.86","287.6949","2.426767"
"4.89","282.2479","2.441533"
"4.92","275.9123","2.456333"
"4.95","268.573","2.471667"
"4.98","260.1886","2.4869"
"5.01","251.1462","2.501967"
"5.04","240.7265","2.516533"
"5.07","229.3603","2.5314"
"5.1","218.3604","2.546467"
"5.13","209.2004","2.561767"
"5.16","201.3016","2.576767"
"5.19","194.718","2.591733"
"5.22","189.259","2.606433"
"5.25","184.2515","2.621367"
"5.28","180.1737","2.636633"
"5.31","176.661","2.651767"
"5.34","172.6906","2.6669"
"5.37","166.92","2.681633"
"5.4","160.7537","2.6966"
"5.43","154.5771","2.711433"
"5.46","146.3954","2.726667"
"5.49","134.0079","2.741867"
"5.52","122.997","2.756733"
"5.55","115.5583","2.771567"
"5.58","110.7136","2.786367"
"5.61","107.5657","2.8017"
"5.64","104.6324","2.816867"
"5.67","101.9009","2.831733"
"5.7","99.60493","2.846633"
"5.73","97.84142","2.861567"
"5.76","96.26309","2.876467"
"5.79","94.92239","2.891633"
"5.82","93.30034","2.906867"
"5.85","90.93047","2.9218"
"5.88","88.61542","2.936533"
"5.91","84.29289","2.9512"
"5.94","74.20381","2.966533"
"5.97","67.81419","2.981667"
"6","62.60554","2.996867"
"6.03","57.99055","3.011667"
"6.06","52.71435","3.026533"
"6.09","41.65173","3.041467"
"6.12","14.2916","3.056667"
"6.15","10.36088","3.071867"
"6.18","10.25359","3.0867"
"6.21","10.24008","3.101433"
"6.24","9.92775","3.1164"
"6.27","10.25518","3.131533"
"6.3","10.35213","3.1467"
"6.33","10.37598","3.1618"
"6.36","10.37439","3.176667"
"6.39","10.33783","3.191533"
"6.42","10.34975","3.206367"
"6.45","10.35849","3.221633"
"6.48","10.32432","3.236833"
"6.51","10.32273","3.251867"
"6.54","10.3577","3.266567"
"6.57","10.37836","3.281367"
"6.6","10.36723","3.296467"
"6.63","10.34657","3.311733"
"6.66","10.34657","3.326767"
"6.69","10.372","3.341733"
"6.72","10.36723","3.356533"
"6.75","10.36882","3.371433"
"6.78","10.37359","3.386667"
"6.81","10.38074","3.4018"
"6.84","10.37439","3.416967"
"6.87","10.36485","3.431667"
"6.9","10.34975","3.4465"
"6.93","10.34101","3.461433"
"6.96","10.34896","3.476567"
"6.99","10.34657","3.491833"
"7.02","10.35372","3.5067"
"7.05","10.34975","3.521367"
"7.08","10.34896","3.536333"
"7.11","10.34339","3.551633"
"7.14","10.36962","3.566833"
"7.17","10.37677","3.5818"
"7.2","10.36723","3.596567"
"7.23","10.37121","3.6115"
"7.26","10.36247","3.626467"
"7.29","10.37836","3.641633"
"7.32","10.37677","3.6568"
"7.35","10.35452","3.6718"
"7.38","10.33862","3.686467"
"7.41","10.34339","3.701367"
"7.44","10.35372","3.7165"
"7.47","10.35611","3.731667"
"7.5","10.35611","3.746967"
"7.53","10.35134","3.7617"
"7.56","10.34498","3.776567"
"7.59","10.35452","3.7915"
"7.62","10.36723","3.8067"
"7.65","10.38233","3.821867"
"7.68","10.37916","3.836733"
"7.71","10.38074","3.8514"
"7.74","10.38074","3.866367"
"7.77","10.38233","3.881533"
"7.8","10.37677","3.8967"
"7.83","10.35611","3.911833"
"7.86","10.36723","3.926833"
"7.89","10.36882","3.941567"
"7.91","10.35372","3.945067"

File: P-run-3.csv
"1 _ 1",,
"Time","Force","Stroke"
"sec","N","mm"
"0","0.1517932","0.0001333333"
"0.04","0.6469091","0.0165"
"0.08","10.64618","0.0369"
"0.12","25.59185","0.05643333"
"0.16","39.62119","0.07636667"
"0.2","53.27145","0.09663334"
"0.24","59.38053","0.1169333"
"0.28","59.48226","0.1365667"
"0.32","59.49815","0.1563667"
"0.36","59.54742","0.1767333"
"0.4","59.57365","0.1968"
"0.44","59.58557","0.2166333"
"0.48","59.54266","0.2365"
"0.52","59.55378","0.2567333"
"0.56","59.5808","0.2768"
"0.6","59.56888","0.2968"
"0.64","59.5514","0.3165667"
"0.68","59.68968","0.3365"
"0.72","59.74293","0.3569"
"0.76","59.74134","0.3767333"
"0.8","59.72544","0.3966667"
"0.84","59.76359","0.4165334"
"0.88","59.83989","0.4369333"
"0.92","60.01155","0.4567667"
"0.96","66.56965","0.4765334"
"1","77.07516","0.4965"
"1.04","86.5078","0.5167333"
"1.08","98.94053","0.5368333"
"1.12","112.2896","0.5564667"
"1.16","125.3144","0.5763667"
"1.2","139.2047","0.5966"
"1.24","152.7913","0.6169333"
"1.28","166.1507","0.6365667"
"1.32","179.4299","0.6563333"
"1.36","192.5651","0.6767667"
"1.4","205.6988","0.6967667"
"1.44","218.5901","0.7166333"
"1.48","231.1866","0.7364333"
"1.52","243.6574","0.7567"
"1.56","256.1156","0.7767667"
"1.6","268.3727","0.7968333"
"1.64","280.4176","0.8165666"
"1.68","292.0969","0.8364"
"1.72","303.7151","0.8568333"
"1.76","315.1894","0.8767334"
"1.8","326.4276","0.8966"
"1.84","337.3154","0.9165334"
"1.88","348.0577","0.9368667"
"1.92","358.7453","0.9566666"
"1.96","369.0132","0.9764333"
"2","378.7907","0.9964667"
"2.04","388.0676","1.0167"
"2.08","396.8445","1.036967"
"2.12","405.1987","1.056533"
"2.16","412.8543","1.076467"
"2.2","420.4377","1.096633"
"2.24","427.9375","1.117033"
"2.28","435.1449","1.136567"
"2.32","441.8619","1.1564"
"2.36","448.4614","1.1767"
"2.4","455.3501","1.196633"
"2.44","462.1156","1.216633"
"2.48","468.5052","1.236433"
"2.52","474.565","1.256667"
"2.56","480.6137","1.276867"
"2.6","486.385","1.2968"
"2.64","491.705","1.316567"
"2.68","496.5289","1.3365"
"2.72","501.2099","1.356867"
"2.76","505.8281","1.376733"
"2.8","510.1037","1.396567"
"2.84","513.8961","1.416533"
"2.88","517.683","1.4369"
"2.92","521.4644","1.4567"
"2.96","524.9675","1.476467"
"3","528.113","1.4965"
"3.04","531.1505","1.5167"
"3.08","534.1093","1.536967"
"3.12","536.5976","1.556567"
"3.16","538.6527","1.576467"
"3.2","540.7191","1.5966"
"3.24","542.7949","1.617067"
"3.28","544.7459","1.6365"
"3.32","546.0453","1.6564"
"3.36","547.328","1.676733"
"3.4","548.6202","1.696767"
"3.44","549.701","1.716633"
"3.48","550.2971","1.736467"
"3.52","550.6229","1.756667"
"3.56","550.8661","1.776833"
"3.6","550.9138","1.7968"
"3.64","550.375","1.8165"
"3.68","549.0693","1.836467"
"3.72","547.1246","1.856867"
"3.76","544.262","1.8767"
"3.8","540.2653","1.896633"
"3.84","535.6455","1.916533"
"3.88","531.0591","1.9369"
"3.92","526.882","1.956833"
"3.96","522.6819","1.9765"
"4","518.5803","1.9965"
"4.04","514.9102","2.0166"
"4.08","511.6892","2.036933"
"4.12","508.5524","2.056533"
"4.16","505.3075","2.076333"
"4.2","502.4195","2.096633"
"4.24","500.0003","2.117033"
"4.28","497.5168","2.1366"
"4.32","494.6653","2.1564"
"4.36","491.8814","2.176767"
"4.4","489.5226","2.196733"
"4.44","487.1655","2.216667"
"4.48","484.6287","2.236433"
"4.52","482.1499","2.256667"
"4.56","479.9739","2.276833"
"4.6","477.7996","2.296833"
"4.64","475.3828","2.316433"
"4.68","472.703","2.3366"
"4.72","470.3069","2.356867"
"4.76","467.8384","2.376733"
"4.8","465.2063","2.3966"
"4.84","462.3326","2.4165"
"4.88","459.5041","2.436867"
"4.92","456.8656","2.456733"
"4.96","453.9879","2.476467"
"5","450.7263","2.4965"
"5.04","447.3535","2.5167"
"5.08","444.1142","2.537"
"5.12","440.5332","2.5565"
"5.16","436.6898","2.576367"
"5.2","433.2097","2.596633"
"5.24","430.1938","2.617033"
"5.28","426.9107","2.636533"
"5.32","422.891","2.656367"
"5.36","418.6853","2.676733"
"5.4","414.2586","2.696667"
"5.44","409.3289","2.7167"
"5.48","403.0045","2.736467"
"5.52","394.8132","2.7567"
"5.56","385.073","2.776833"
"5.6","374.6931","2.7969"
"5.64","363.5573","2.816467"
"5.68","351.936","2.8365"
"5.72","338.8858","2.8569"
"5.76","320.8184","2.8767"
"5.8","301.7974","2.8966"
"5.84","286.332","2.916533"
"5.88","272.1397","2.936867"
"5.92","256.0639","2.9568"
"5.96","240.0398","2.9765"
"6","227.9099","2.996567"
"6.04","220.1605","3.0167"
"6.08","214.3574","3.036967"
"6.12","208.3135","3.056533"
"6.16","204.0664","3.0764"
"6.2","201.1029","3.096667"
"6.24","198.8022","3.117"
"6.28","195.7591","3.136567"
"6.32","191.3079","3.1564"
"6.36","186.8049","3.176833"
"6.4","181.4429","3.1967"
"6.44","174.9523","3.216633"
"6.48","166.1205","3.236433"
"6.52","157.9921","3.256667"
"6.56","150.7092","3.2768"
"6.6","141.5126","3.296767"
"6.64","132.4495","3.3165"
"6.68","123.7686","3.336533"
"6.72","119.3476","3.3569"
"6.76","115.7014","3.376833"
"6.8","112.9468","3.396567"
"6.84","110.7844","3.4166"
"6.88","109.5494","3.436867"
"6.92","108.5424","3.456767"
"6.96","107.7994","3.476467"
"7","106.8568","3.496467"
"7.04","104.6673","3.516667"
"7.08","100.7326","3.536933"
"7.12","97.76036","3.5565"
"7.16","96.10017","3.576333"
"7.2","94.95815","3.596667"
"7.24","93.52128","3.617"
"7.28","92.57079","3.6366"
"7.32","91.93818","3.656367"
"7.36","91.05682","3.676767"
"7.4","89.65334","3.696733"
"7.44","88.75688","3.716667"
"7.48","88.27209","3.736433"
"7.52","87.28504","3.756633"
"7.56","86.14302","3.776867"
"7.6","85.02245","3.7968"
"7.64","84.50111","3.8165"
"7.68","84.21819","3.836533"
"7.72","84.01076","3.856867"
"7.76","83.51485","3.876767"
"7.8","82.5127","3.896533"
"7.84","81.954","3.9165"
"7.88","81.4867","3.9369"
"7.92","80.67767","3.956767"
"7.96","79.36796","3.976467"
"8","77.81744","3.9965"
"8.04","76.84549","4.016767"
"8.08","75.90929","4.036933"
"8.12","74.05997","4.056567"
"8.16","71.38332","4.076367"
"8.2","67.25153","4.096667"
"8.24","60.94456","4.117"
"8.28","57.22443","4.1366"
"8.32","25.9908","4.156367"
"8.36","23.52794","4.176733"
"8.4","23.47549","4.1968"
"8.44","23.44052","4.2167"
"8.48","23.39602","4.2364"
"8.52","23.29588","4.256667"
"8.56","23.34515","4.2769"
"8.6","23.37058","4.296767"
"8.64","23.39125","4.316467"
"8.68","23.38886","4.336567"
"8.72","23.3976","4.356833"
"8.76","23.38409","4.376667"
"8.8","23.35628","4.396533"
"8.84","23.31813","4.416467"
"8.88","23.34833","4.4369"
"8.92","23.36184","4.456767"
"8.96","23.36423","4.4765"
"9","23.37535","4.496467"
"9.04","23.37535","4.516667"
"9.08","23.33721","4.536967"
"9.12","23.32052","4.556533"
"9.16","23.35628","4.576367"
"9.2","23.35787","4.596667"
"9.24","23.36661","4.616967"
"9.28","23.36184","4.6366"
"9.32","23.36502","4.6564"
"9.36","23.36661","4.676767"
"9.4","23.3674","4.6968"
"9.44","23.36661","4.716667"
"9.48","23.3531","4.736367"
"9.52","23.35946","4.756633"
"9.56","23.34515","4.776834"
"9.6","23.34674","4.7968"
"9.64","23.33721","4.8165"
"9.68","23.35151","4.836567"
"9.72","23.34038","4.856934"
"9.76","23.33085","4.8767"
"9.8","23.34515","4.896567"
"9.84","23.34277","4.9165"
"9.88","23.35151","4.9368"
"9.92","23.34197","4.956833"
"9.96","23.35072","4.976467"
"10","23.35548","4.996467"
"10.04","23.35072","5.016634"
"10.08","23.35628","5.036967"
"10.12","23.33323","5.056467"
"10.16","23.34436","5.076367"
"10.2","23.3539","5.096633"
"10.24","23.35946","5.116967"
"10.28","23.34038","5.136567"
"10.32","23.34674","5.1558"
"10.33","23.35787","5.157633"