Folder: Modified-Jubilee/degradation_testing/tensile_testing/PLA/PLA_Acetone

Note: README.md
# Modified Jubilee  
### Master‚Äôs Thesis Design Files & Documentation  

---

## üìò Overview

This repository contains all design files, mechanical models, firmware, scripts, and supporting documentation used in the development of my Master‚Äôs thesis:

**‚ÄúDESIGN, MODIFICATION, AND EVALUATION OF THE JUBILEE  
OPEN-SOURCE MOTION PLATFORM FOR AUTOMATED DIP COATING‚Äù**

This repository exists to support replication, modification, and extension of the system in alignment with open-source hardware principles.

File: PLA-A-1.csv
"1 _ 1",,
"Time","Force","Stroke"
"sec","N","mm"
"0","0.5141894","0.0001"
"0.05","1.461506","0.02096667"
"0.1","17.13594","0.04653334"
"0.15","36.35963","0.0714"
"0.2","46.44791","0.09636667"
"0.25","46.75309","0.1217667"
"0.3","46.73799","0.1468"
"0.35","46.71335","0.1713333"
"0.4","46.75309","0.1966333"
"0.45","46.80157","0.2218667"
"0.5","46.80793","0.2465333"
"0.55","46.83097","0.2716333"
"0.6","46.79998","0.2967667"
"0.65","46.8421","0.3214667"
"0.7","46.87707","0.3464333"
"0.75","46.90965","0.3718333"
"0.8","46.9319","0.3967667"
"0.85","47.00899","0.4214667"
"0.9","47.18781","0.4466333"
"0.95","52.99091","0.4719333"
"1","67.5869","0.4965"
"1.05","78.92688","0.5215667"
"1.1","95.12822","0.5467"
"1.15","114.1421","0.5715"
"1.2","132.9001","0.5965"
"1.25","151.2822","0.6217334"
"1.3","169.328","0.6466666"
"1.35","186.7692","0.6712667"
"1.4","203.7319","0.6965333"
"1.45","220.7351","0.7218333"
"1.5","237.2122","0.7465333"
"1.55","252.5894","0.7715667"
"1.6","267.4206","0.7968667"
"1.65","282.4179","0.8215333"
"1.7","295.4483","0.8464333"
"1.75","307.831","0.8718333"
"1.8","320.0499","0.8967"
"1.85","331.2238","0.9214333"
"1.9","342.044","0.9465333"
"1.95","353.2386","0.9719334"
"2","364.3362","0.9965333"
"2.05","374.8766","1.021633"
"2.1","385.4791","1.046733"
"2.15","395.9012","1.0715"
"2.2","406.0427","1.096533"
"2.25","416.3782","1.121767"
"2.3","426.7407","1.146833"
"2.35","436.7256","1.1713"
"2.4","446.5302","1.196467"
"2.45","456.8013","1.221867"
"2.5","466.7799","1.246533"
"2.55","476.3889","1.2716"
"2.6","486.1848","1.296733"
"2.65","495.6102","1.321467"
"2.7","504.7234","1.346467"
"2.75","513.8691","1.3717"
"2.8","523.049","1.396733"
"2.85","531.6822","1.4215"
"2.9","539.6978","1.446633"
"2.95","547.0872","1.471967"
"3","553.7788","1.4965"
"3.05","558.691","1.5216"
"3.1","560.9115","1.546667"
"3.15","559.1718","1.571433"
"3.2","551.4312","1.596567"
"3.25","537.1642","1.6218"
"3.3","521.0519","1.646767"
"3.35","505.8503","1.671367"
"3.4","492.9415","1.6966"
"3.45","482.5393","1.721933"
"3.5","473.5279","1.746533"
"3.55","465.463","1.7716"
"3.6","458.649","1.796733"
"3.65","452.5352","1.821467"
"3.7","446.9816","1.846533"
"3.75","442.1767","1.871767"
"3.8","437.9113","1.896733"
"3.85","433.739","1.921433"
"3.9","430.1938","1.946533"
"3.95","427.3097","1.972067"
"4","424.5583","1.9965"
"4.05","421.5145","2.021667"
"4.1","419.0779","2.046767"
"4.15","416.5975","2.071467"
"4.2","413.8033","2.0966"
"4.25","411.3913","2.1217"
"4.3","409.2065","2.146733"
"4.35","406.9392","2.1713"
"4.4","404.7307","2.1966"
"4.45","403.0005","2.221867"
"4.5","401.0296","2.2466"
"4.55","398.7177","2.271633"
"4.6","396.6236","2.296733"
"4.65","394.4619","2.321533"
"4.7","392.0913","2.346533"
"4.75","389.9892","2.371633"
"4.8","388.0548","2.396767"
"4.85","385.9758","2.421367"
"4.9","383.8762","2.4466"
"4.95","382.2223","2.471933"
"5","380.2443","2.496567"
"5.05","377.8235","2.5216"
"5.1","375.8216","2.546733"
"5.15","373.826","2.571433"
"5.2","371.4697","2.596467"
"5.25","369.2961","2.6218"
"5.3","367.1495","2.6468"
"5.35","364.5031","2.671233"
"5.4","361.5006","2.6966"
"5.45","358.3678","2.721933"
"5.5","354.9163","2.746533"
"5.55","350.9935","2.771633"
"5.6","347.6453","2.796633"
"5.65","344.3034","2.821467"
"5.7","340.5706","2.8465"
"5.75","336.6868","2.871767"
"5.8","333.2289","2.896733"
"5.85","329.442","2.9214"
"5.9","325.5201","2.9467"
"5.95","322.0161","2.971933"
"6","318.2252","2.9965"
"6.05","314.3318","3.021567"
"6.1","310.9876","3.0466"
"6.15","307.258","3.071533"
"6.2","302.0612","3.096433"
"6.25","297.5567","3.121767"
"6.3","293.7961","3.146867"
"6.35","289.77","3.1713"
"6.4","285.4808","3.1966"
"6.45","281.5262","3.221867"
"6.5","278.0906","3.2465"
"6.55","274.9737","3.271667"
"6.6","272.1357","3.296633"
"6.65","268.3703","3.321433"
"6.7","262.839","3.346533"
"6.75","257.4182","3.371767"
"6.8","252.9438","3.396767"
"6.85","248.5307","3.421367"
"6.9","243.3634","3.4467"
"6.95","239.1497","3.471933"
"7","235.0656","3.496633"
"7.05","230.9465","3.5217"
"7.1","227.3496","3.5466"
"7.15","224.4051","3.5715"
"7.2","220.5944","3.596533"
"7.25","216.4904","3.621733"
"7.3","213.182","3.646733"
"7.35","210.5562","3.671333"
"7.4","207.2056","3.696633"
"7.45","203.317","3.721933"
"7.5","200.5156","3.746533"
"7.55","198.2745","3.771667"
"7.6","195.8044","3.7968"
"7.65","191.7219","3.821533"
"7.7","188.5462","3.8464"
"7.75","186.1517","3.871733"
"7.8","183.8795","3.8967"
"7.85","179.4402","3.921467"
"7.9","176.2621","3.9466"
"7.95","174.4262","3.9719"
"8","172.1549","3.996567"
"8.05","168.283","4.021633"
"8.1","165.6207","4.0467"
"8.15","162.5347","4.0715"
"8.2","159.9868","4.0965"
"8.25","156.5345","4.121833"
"8.3","154.1885","4.1468"
"8.35","152.2541","4.1713"
"8.4","149.8485","4.196533"
"8.45","146.8674","4.221933"
"8.5","144.4546","4.246467"
"8.55","142.1014","4.2716"
"8.6","139.0807","4.2968"
"8.65","136.3365","4.3215"
"8.7","133.8617","4.346533"
"8.75","130.6613","4.3718"
"8.8","127.9807","4.396733"
"8.85","126.2673","4.421467"
"8.9","124.9901","4.446633"
"8.95","122.9723","4.471833"
"9","120.3752","4.4965"
"9.05","117.8885","4.521633"
"9.1","115.7904","4.5467"
"9.15","113.3529","4.5715"
"9.2","106.5222","4.596567"
"9.25","101.3811","4.6217"
"9.3","98.10448","4.6468"
"9.35","95.30386","4.671333"
"9.4","87.80717","4.6966"
"9.45","82.87589","4.721867"
"9.5","81.13623","4.7465"
"9.55","80.19527","4.7716"
"9.6","79.65406","4.7968"
"9.65","79.0747","4.821434"
"9.7","78.56767","4.8465"
"9.75","78.05824","4.871733"
"9.8","77.1149","4.8968"
"9.85","75.92201","4.921467"
"9.9","75.04622","4.946633"
"9.95","74.48594","4.971933"
"10","73.88671","4.996533"
"10.05","73.02205","5.021567"
"10.1","72.04135","5.046733"
"10.15","70.11652","5.0715"
"10.2","68.89899","5.0965"
"10.25","68.08519","5.121733"
"10.3","67.39696","5.146733"
"10.35","65.97201","5.171367"
"10.4","64.21327","5.196633"
"10.45","62.17957","5.2219"
"10.5","59.36702","5.246467"
"10.55","57.02813","5.271634"
"10.6","55.16211","5.2968"
"10.65","52.57209","5.321533"
"10.7","48.37354","5.3465"
"10.75","46.44791","5.3717"
"10.8","18.3932","5.396733"
"10.85","13.81159","5.421467"
"10.9","12.90878","5.446633"
"10.95","11.52833","5.4719"
"11","10.79241","5.4965"
"11.05","10.5683","5.521667"
"11.1","10.51188","5.546767"
"11.15","10.5389","5.5715"
"11.2","10.48962","5.596533"
"11.25","10.57863","5.621767"
"11.3","10.57227","5.646733"
"11.35","10.54843","5.671233"
"11.4","10.54287","5.696567"
"11.45","10.55956","5.7219"
"11.5","10.51505","5.746533"
"11.55","10.50711","5.771667"
"11.6","10.523","5.7968"
"11.65","10.52936","5.821567"
"11.7","10.53413","5.846533"
"11.75","10.55638","5.871767"
"11.8","10.55638","5.896733"
"11.85","10.56194","5.921367"
"11.9","10.55082","5.9466"
"11.95","10.55717","5.971967"
"12","10.54287","5.9965"
"12.05","10.51267","6.0216"
"12.1","10.50949","6.0468"
"12.15","10.51426","6.071533"
"12.2","10.53174","6.096467"
"12.25","10.5389","6.1217"
"12.3","10.56353","6.146833"
"12.35","10.57625","6.171333"
"12.4","10.56115","6.1966"
"12.45","10.54128","6.221867"
"12.5","10.54843","6.2465"
"12.55","10.54128","6.271667"
"12.6","10.52936","6.2968"
"12.65","10.54605","6.321434"
"12.7","10.54525","6.346434"
"12.75","10.54605","6.3718"
"12.8","10.56115","6.396767"
"12.85","10.54366","6.421433"
"12.9","10.5683","6.446667"
"12.95","10.55082","6.471967"
"13","10.52618","6.496567"
"13.05","10.53492","6.521567"
"13.1","10.51267","6.546667"
"13.15","10.51664","6.571467"
"13.2","10.52141","6.596567"
"13.25","10.523","6.621767"
"13.3","10.55241","6.6467"
"13.35","10.56592","6.6713"
"13.4","10.56115","6.696667"
"13.45","10.53174","6.721933"
"13.5","10.5389","6.746533"
"13.55","10.53015","6.771634"
"13.6","10.53015","6.796767"
"13.65","10.52539","6.821533"
"13.7","10.5389","6.846367"
"13.75","10.54525","6.871767"
"13.8","10.54128","6.896733"
"13.85","10.55876","6.921467"
"13.9","10.57466","6.9466"
"13.95","10.55082","6.971967"
"14","10.54764","6.996567"
"14.04","10.53015","7.010133"

File: PLA-A-2.csv
"1 _ 1",,
"Time","Force","Stroke"
"sec","N","mm"
"0","0.6167094","6.666667E-05"
"0.04","0.9131432","0.01553333"
"0.08","9.720325","0.03626667"
"0.12","26.20856","0.0567"
"0.16","43.05601","0.07666667"
"0.2","58.83853","0.09646667"
"0.24","63.94545","0.1166"
"0.28","63.99711","0.1367667"
"0.32","63.98996","0.1568333"
"0.36","64.01221","0.1766333"
"0.4","64.01778","0.1963667"
"0.44","64.02334","0.2167667"
"0.48","64.06387","0.2368667"
"0.52","64.04321","0.2564"
"0.56","64.05512","0.2764667"
"0.6","64.05672","0.2968"
"0.64","64.04639","0.3168667"
"0.68","64.06466","0.3364"
"0.72","64.14811","0.3564333"
"0.76","64.15367","0.3766333"
"0.8","64.18626","0.3969333"
"0.84","64.20692","0.4166333"
"0.88","64.22281","0.4363"
"0.92","64.25778","0.4566333"
"0.96","65.70419","0.4768"
"1","75.03986","0.4967"
"1.04","88.81251","0.5164"
"1.08","103.2495","0.5366333"
"1.12","118.5727","0.5567333"
"1.16","134.836","0.5766"
"1.2","150.8951","0.5964333"
"1.24","166.4082","0.6165"
"1.28","182.4371","0.6368334"
"1.32","198.5017","0.6567"
"1.36","213.8662","0.6765333"
"1.4","228.862","0.6963667"
"1.44","243.9721","0.7167667"
"1.48","259.3176","0.7368333"
"1.52","274.388","0.7564334"
"1.56","288.8322","0.7764333"
"1.6","303.4433","0.7968"
"1.64","318.3842","0.8168"
"1.68","333.0445","0.8363667"
"1.72","347.3282","0.8565"
"1.76","361.4998","0.8766333"
"1.8","375.6539","0.8969"
"1.84","389.4226","0.9165667"
"1.88","402.739","0.9362333"
"1.92","415.9013","0.9566"
"1.96","429.2703","0.9768"
"2","442.4914","0.9966667"
"2.04","455.1967","1.016333"
"2.08","467.4983","1.036733"
"2.12","479.8516","1.056933"
"2.16","491.8655","1.076633"
"2.2","503.1697","1.096467"
"2.24","513.9605","1.116567"
"2.28","524.532","1.1368"
"2.32","534.6759","1.156767"
"2.36","543.8741","1.1766"
"2.4","551.6251","1.1962"
"2.44","557.7763","1.216633"
"2.48","562.6583","1.236833"
"2.52","565.9517","1.256467"
"2.56","567.4926","1.276467"
"2.6","567.7104","1.2968"
"2.64","566.8028","1.3168"
"2.68","564.4584","1.3364"
"2.72","560.7589","1.356567"
"2.76","556.0016","1.376567"
"2.8","550.0651","1.396867"
"2.84","543.0095","1.416667"
"2.88","535.3331","1.4362"
"2.92","527.8087","1.456567"
"2.96","521.3126","1.476867"
"3","515.3688","1.496633"
"3.04","509.4663","1.5164"
"3.08","504.0487","1.536733"
"3.12","499.3709","1.556833"
"3.16","495.0643","1.576633"
"3.2","490.7854","1.5965"
"3.24","486.6846","1.616567"
"3.28","482.9502","1.636767"
"3.32","479.3024","1.6568"
"3.36","475.5266","1.6766"
"3.4","471.6754","1.696367"
"3.44","468.1206","1.7168"
"3.48","464.6953","1.736767"
"3.52","460.9656","1.756433"
"3.56","457.1088","1.776467"
"3.6","453.6049","1.7968"
"3.64","450.4426","1.816733"
"3.68","447.1858","1.836333"
"3.72","443.8019","1.8565"
"3.76","440.7414","1.876633"
"3.8","438.0171","1.8969"
"3.84","435.2061","1.916633"
"3.88","432.0916","1.9363"
"3.92","429.1614","1.9566"
"3.96","426.8432","1.9769"
"4","424.761","1.996633"
"4.04","422.4674","2.0164"
"4.08","420.262","2.036733"
"4.12","418.5812","2.056767"
"4.16","417.0378","2.076633"
"4.2","415.3999","2.096467"
"4.24","413.5601","2.116633"
"4.28","411.7409","2.136833"
"4.32","409.9647","2.156733"
"4.36","408.0558","2.1766"
"4.4","406.0833","2.196433"
"4.44","404.3396","2.216733"
"4.48","402.7907","2.236933"
"4.52","401.0781","2.256433"
"4.56","398.5548","2.276467"
"4.6","396.3407","2.2968"
"4.64","394.2402","2.3168"
"4.68","391.7623","2.3364"
"4.72","389.049","2.356567"
"4.76","386.5313","2.3765"
"4.8","383.6401","2.396833"
"4.84","380.47","2.416567"
"4.88","376.8333","2.436267"
"4.92","373.3452","2.456633"
"4.96","370.1877","2.476867"
"5","366.5972","2.496667"
"5.04","361.6563","2.5164"
"5.08","356.7203","2.536733"
"5.12","351.8716","2.556733"
"5.16","346.632","2.576733"
"5.2","340.12","2.5965"
"5.24","332.3174","2.6166"
"5.28","326.2448","2.636767"
"5.32","321.0489","2.656767"
"5.36","316.2289","2.6766"
"5.4","311.1204","2.6964"
"5.44","305.1217","2.716767"
"5.48","298.8839","2.736833"
"5.52","293.2231","2.7565"
"5.56","288.5445","2.7765"
"5.6","284.5558","2.796867"
"5.64","281.4484","2.816833"
"5.68","279.1762","2.836367"
"5.72","276.6887","2.856433"
"5.76","272.8335","2.876667"
"5.8","268.9902","2.896933"
"5.84","265.1461","2.9166"
"5.88","259.769","2.936233"
"5.92","252.9923","2.9567"
"5.96","247.8194","2.976867"
"6","242.2531","2.996733"
"6.04","237.8162","3.0163"
"6.08","234.5816","3.036667"
"6.12","231.0769","3.056733"
"6.16","226.8902","3.0767"
"6.2","223.0279","3.096467"
"6.24","217.2311","3.1166"
"6.28","211.0283","3.1368"
"6.32","204.9375","3.156833"
"6.36","194.6521","3.1766"
"6.4","185.5667","3.1964"
"6.44","180.0831","3.2168"
"6.48","176.3725","3.236833"
"6.52","173.2206","3.256467"
"6.56","169.8168","3.276433"
"6.6","166.3542","3.296733"
"6.64","163.7141","3.316833"
"6.68","160.9397","3.336433"
"6.72","157.7687","3.356467"
"6.76","153.7856","3.376667"
"6.8","149.5091","3.396933"
"6.84","144.5333","3.416667"
"6.88","140.3705","3.436267"
"6.92","135.2835","3.456633"
"6.96","130.2298","3.476867"
"7","124.5586","3.496633"
"7.04","119.4795","3.516333"
"7.08","116.1138","3.536767"
"7.12","113.5763","3.556667"
"7.16","111.0125","3.576567"
"7.2","107.6261","3.5965"
"7.24","104.3797","3.616633"
"7.28","101.7968","3.636833"
"7.32","99.24332","3.6568"
"7.36","95.222","3.676533"
"7.4","91.75301","3.696433"
"7.44","88.46839","3.716833"
"7.48","83.62054","3.736767"
"7.52","77.74751","3.756533"
"7.56","73.06815","3.776467"
"7.6","67.35881","3.796767"
"7.64","61.94194","3.816833"
"7.68","31.47284","3.8364"
"7.72","28.25101","3.8565"
"7.76","28.29552","3.8766"
"7.8","28.22002","3.8969"
"7.84","28.18028","3.916567"
"7.88","28.14054","3.9363"
"7.92","28.06664","3.956667"
"7.96","27.97047","3.976867"
"8","27.91246","3.9966"
"8.04","27.90769","4.016366"
"8.08","27.89259","4.0367"
"8.12","27.87431","4.056867"
"8.16","27.85683","4.0767"
"8.2","27.85921","4.0964"
"8.24","27.83855","4.1165"
"8.28","27.84809","4.1368"
"8.32","27.85285","4.1568"
"8.36","27.85047","4.176567"
"8.4","27.85603","4.196367"
"8.44","27.88544","4.216767"
"8.48","27.87193","4.236767"
"8.52","27.89497","4.2565"
"8.56","27.88862","4.2765"
"8.6","27.88305","4.296767"
"8.64","27.88146","4.316733"
"8.68","27.86557","4.336433"
"8.72","27.85683","4.3565"
"8.76","27.8608","4.376667"
"8.8","27.85285","4.396934"
"8.84","27.85683","4.416567"
"8.88","27.8767","4.4363"
"8.92","27.86795","4.4567"
"8.96","27.87034","4.476867"
"9","27.89021","4.496634"
"9.04","27.89656","4.516334"
"9.08","27.87908","4.5367"
"9.12","27.86795","4.556833"
"9.16","27.85842","4.576667"
"9.2","27.86954","4.596533"
"9.24","27.85047","4.6166"
"9.28","27.85444","4.6368"
"9.32","27.8608","4.6568"
"9.36","27.85206","4.6766"
"9.4","27.87272","4.6964"
"9.44","27.8608","4.716733"
"9.48","27.87749","4.736667"
"9.52","27.86954","4.7564"
"9.56","27.89656","4.776467"
"9.6","27.89497","4.7968"
"9.64","27.88146","4.816867"
"9.68","27.86318","4.836433"
"9.72","27.85842","4.856433"
"9.76","27.8457","4.876633"
"9.8","27.8457","4.896967"
"9.84","27.85842","4.916567"
"9.87","27.83696","4.925267"

File: PLA-A-3.csv
"1 _ 1",,
"Time","Force","Stroke"
"sec","N","mm"
"0","0.3925959","6.666667E-05"
"0.03","0.4402796","0.01066667"
"0.06","2.988179","0.02593333"
"0.09","12.81897","0.04113333"
"0.12","24.40135","0.05656667"
"0.15","35.11508","0.0717"
"0.18","44.9276","0.0867"
"0.21","54.10035","0.1015333"
"0.24","58.38553","0.1164333"
"0.27","58.61123","0.1314333"
"0.3","58.68435","0.1467"
"0.33","58.74634","0.1617333"
"0.36","58.70422","0.1766667"
"0.39","58.62395","0.1913667"
"0.42","58.53891","0.2064"
"0.45","58.46103","0.2216333"
"0.48","58.40142","0.2367667"
"0.51","58.35692","0.2519667"
"0.54","58.37679","0.2667"
"0.57","58.4197","0.2816333"
"0.6","58.49123","0.2963667"
"0.63","58.50871","0.3116"
"0.66","58.53097","0.3268"
"0.69","58.66289","0.3416667"
"0.72","58.77813","0.3564"
"0.75","58.84011","0.3713333"
"0.78","58.81389","0.3866333"
"0.81","58.77574","0.4018333"
"0.84","58.7217","0.4167667"
"0.87","58.63984","0.4316667"
"0.9","58.64938","0.4465334"
"0.93","58.75587","0.4614334"
"0.96","59.16436","0.4767"
"0.99","61.6161","0.4918333"
"1.02","69.53558","0.5068"
"1.05","80.25328","0.5214667"
"1.08","91.94295","0.5362"
"1.11","103.2066","0.5514"
"1.14","114.4656","0.5665333"
"1.17","126.2895","0.5818334"
"1.2","138.2176","0.5967"
"1.23","149.9303","0.6114333"
"1.26","161.4491","0.6262667"
"1.29","172.7525","0.6416"
"1.32","183.8509","0.6568334"
"1.35","195.175","0.6717667"
"1.38","206.3648","0.6864667"
"1.41","217.282","0.7014"
"1.44","227.9027","0.7164667"
"1.47","238.5529","0.7315667"
"1.5","249.4582","0.7468"
"1.53","260.1663","0.7617667"
"1.56","270.6734","0.7765"
"1.59","280.8142","0.7913333"
"1.62","291.1139","0.8066"
"1.65","301.4056","0.8217"
"1.68","311.7426","0.8369667"
"1.71","321.8818","0.8516"
"1.74","331.5751","0.8664667"
"1.77","340.9012","0.8814"
"1.8","350.2305","0.8966667"
"1.83","359.3731","0.9117"
"1.86","368.1461","0.9266334"
"1.89","376.4621","0.9413667"
"1.92","384.3896","0.9564"
"1.95","392.1414","0.9715334"
"1.98","399.886","0.9867"
"2.01","407.4764","1.001833"
"2.04","414.7506","1.0167"
"2.07","421.7243","1.031633"
"2.1","428.4422","1.046433"
"2.13","435.0249","1.061567"
"2.16","441.699","1.076733"
"2.19","448.2277","1.0918"
"2.22","454.7556","1.1064"
"2.25","460.999","1.1213"
"2.28","467.1041","1.1366"
"2.31","473.3546","1.1517"
"2.34","479.6322","1.1667"
"2.37","485.8152","1.181533"
"2.4","491.8543","1.196367"
"2.43","497.7767","1.211367"
"2.46","503.7411","1.226667"
"2.49","509.8923","1.2418"
"2.52","515.9807","1.256833"
"2.55","521.8696","1.2714"
"2.58","527.3835","1.286467"
"2.61","532.8878","1.301367"
"2.64","538.3603","1.316667"
"2.67","544.0052","1.3319"
"2.7","549.5572","1.346733"
"2.73","554.9185","1.3614"
"2.76","560.05","1.376367"
"2.79","565.2698","1.391733"
"2.82","570.3473","1.406967"
"2.85","575.1498","1.421733"
"2.88","579.4796","1.436467"
"2.91","583.2561","1.4515"
"2.94","586.0877","1.4665"
"2.97","587.7678","1.481567"
"3","588.2032","1.496833"
"3.03","587.012","1.511767"
"3.06","583.3602","1.5265"
"3.09","575.5496","1.541267"
"3.12","564.4647","1.5566"
"3.15","552.7401","1.571733"
"3.18","541.8206","1.5869"
"3.21","532.0716","1.6016"
"3.24","523.3955","1.616467"
"3.27","515.6907","1.631433"
"3.3","509.154","1.646767"
"3.33","503.5806","1.661867"
"3.36","498.5174","1.6767"
"3.39","493.6194","1.6914"
"3.42","488.9305","1.706367"
"3.45","484.5969","1.721567"
"3.48","480.6733","1.736767"
"3.51","477.1002","1.7519"
"3.54","473.5438","1.766667"
"3.57","470.0152","1.7816"
"3.6","466.555","1.7962"
"3.63","463.4611","1.8115"
"3.66","460.6851","1.8267"
"3.69","458.1396","1.841667"
"3.72","455.6243","1.856467"
"3.75","452.9874","1.871333"
"3.78","450.3894","1.886533"
"3.81","447.9353","1.9018"
"3.84","445.7164","1.916767"
"3.87","443.5635","1.931667"
"3.9","441.3764","1.946533"
"3.93","439.2362","1.961567"
"3.96","437.2207","1.976667"
"3.99","435.3531","1.991733"
"4.02","433.4958","2.0068"
"4.05","431.6632","2.021567"
"4.08","429.6653","2.0363"
"4.11","427.6411","2.0513"
"4.14","425.7123","2.066633"
"4.17","424.0123","2.081833"
"4.2","421.9858","2.096767"
"4.23","419.5849","2.1115"
"4.26","416.9067","2.1264"
"4.29","414.3008","2.1417"
"4.32","411.8244","2.1569"
"4.35","409.6285","2.171733"
"4.38","407.3946","2.186467"
"4.41","405.0867","2.2014"
"4.44","402.8845","2.216433"
"4.47","400.8754","2.2317"
"4.5","399.0761","2.246767"
"4.53","397.1481","2.261733"
"4.56","395.0206","2.276533"
"4.59","392.5959","2.2914"
"4.62","390.2745","2.306567"
"4.65","388.027","2.321833"
"4.68","385.9583","2.3369"
"4.71","383.8722","2.351533"
"4.74","381.5842","2.366433"
"4.77","379.2946","2.381433"
"4.8","376.9906","2.396667"
"4.83","374.4395","2.411733"
"4.86","371.755","2.4266"
"4.89","368.9178","2.441267"
"4.92","365.9677","2.456333"
"4.95","363.3086","2.471567"
"4.98","360.9467","2.486733"
"5.01","358.7961","2.501967"
"5.04","356.8268","2.5167"
"5.07","354.7279","2.531567"
"5.1","352.4423","2.546367"
"5.13","350.2305","2.561567"
"5.16","348.3137","2.5768"
"5.19","346.5565","2.591733"
"5.22","344.7175","2.606433"
"5.25","342.838","2.621367"
"5.28","341.2485","2.6366"
"5.31","339.8101","2.651733"
"5.34","338.1141","2.666767"
"5.37","336.2076","2.6816"
"5.4","334.2843","2.696467"
"5.43","332.369","2.7115"
"5.46","330.8105","2.726667"
"5.49","329.4849","2.7418"
"5.52","328.2698","2.756833"
"5.55","326.9514","2.7715"
"5.58","325.1394","2.7865"
"5.61","323.5054","2.801433"
"5.64","321.9573","2.816567"
"5.67","320.2685","2.831933"
"5.7","318.0726","2.846667"
"5.73","315.326","2.861433"
"5.76","312.4221","2.876433"
"5.79","309.5913","2.891733"
"5.82","306.7398","2.9069"
"5.85","303.8088","2.921767"
"5.88","300.4908","2.936433"
"5.91","296.2645","2.951467"
"5.94","292.1049","2.9665"
"5.97","287.9548","2.981533"
"6","283.5099","2.996733"
"6.03","278.8711","3.011667"
"6.06","273.6608","3.026467"
"6.09","268.2551","3.0413"
"6.12","262.3375","3.056567"
"6.15","255.9344","3.0718"
"6.18","249.9183","3.0869"
"6.21","243.907","3.1016"
"6.24","238.874","3.1165"
"6.27","234.4219","3.1315"
"6.3","229.6233","3.1467"
"6.33","224.0253","3.161733"
"6.36","217.7819","3.176667"
"6.39","212.2927","3.191367"
"6.42","207.9137","3.2064"
"6.45","204.1451","3.221633"
"6.48","200.1357","3.236667"
"6.51","195.0757","3.2519"
"6.54","191.4906","3.266733"
"6.57","188.1369","3.281533"
"6.6","185.7122","3.296333"
"6.63","183.8843","3.311633"
"6.66","182.4617","3.326833"
"6.69","180.7777","3.3418"
"6.72","177.5638","3.356367"
"6.75","174.4175","3.371367"
"6.78","171.5422","3.3866"
"6.81","169.3392","3.401833"
"6.84","166.4972","3.416767"
"6.87","162.4258","3.431667"
"6.9","158.8345","3.446467"
"6.93","154.6073","3.4615"
"6.96","147.5891","3.4767"
"6.99","138.588","3.491767"
"7.02","129.5757","3.5068"
"7.05","123.2314","3.521533"
"7.08","118.1889","3.536233"
"7.11","114.3535","3.5514"
"7.14","110.809","3.566633"
"7.17","107.8312","3.581833"
"7.2","105.8428","3.596633"
"7.23","103.8893","3.611467"
"7.26","102.032","3.626367"
"7.29","100.4124","3.641667"
"7.32","98.87616","3.656767"
"7.35","97.50525","3.6718"
"7.38","96.11368","3.6865"
"7.41","94.44793","3.701433"
"7.44","92.68443","3.716467"
"7.47","91.43591","3.731633"
"7.5","90.3217","3.746833"
"7.53","88.67582","3.7617"
"7.56","86.45137","3.7765"
"7.59","83.95195","3.791333"
"7.62","81.24352","3.806633"
"7.65","76.83675","3.8218"
"7.68","66.88039","3.8369"
"7.71","48.26625","3.8516"
"7.74","24.46334","3.866467"
"7.76","22.86037","3.8712"