Folder: Modified-Jubilee/degradation_testing/tensile_testing/PLA/PLA_IPA (part 2)

File: PLA-IPA-4.csv
"1 _ 1",,
"Time","Force","Stroke"
"sec","N","mm"
"0","0.4315376","0.0001"
"0.04","0.5197525","0.016"
"0.08","2.423922","0.03643334"
"0.12","5.224546","0.05643333"
"0.16","8.126895","0.07646666"
"0.2","10.82818","0.09676667"
"0.24","13.47224","0.1168"
"0.28","16.00981","0.1365667"
"0.32","18.44883","0.1564333"
"0.36","20.87275","0.1767333"
"0.4","23.2625","0.1968667"
"0.44","25.68086","0.2164"
"0.48","28.08014","0.2364"
"0.52","30.64156","0.2567333"
"0.56","33.0472","0.2768667"
"0.6","35.47033","0.2964333"
"0.64","37.49371","0.3164333"
"0.68","38.50381","0.3366667"
"0.72","38.68977","0.3569333"
"0.76","38.72951","0.3766"
"0.8","39.22939","0.3963333"
"0.84","40.52639","0.4166"
"0.88","42.4552","0.4368334"
"0.92","44.51434","0.4566333"
"0.96","46.3295","0.4763667"
"1","47.94359","0.4966334"
"1.04","49.59106","0.5167667"
"1.08","51.08913","0.5366667"
"1.12","53.09979","0.5565"
"1.16","55.66994","0.5765"
"1.2","58.7066","0.5968333"
"1.24","61.78777","0.6167667"
"1.28","64.57487","0.6365333"
"1.32","66.3654","0.6564"
"1.36","67.01072","0.6767"
"1.4","67.16093","0.6968667"
"1.44","67.10211","0.7163666"
"1.48","67.04728","0.7364666"
"1.52","67.45497","0.7567"
"1.56","67.36517","0.7768667"
"1.6","67.56862","0.7964666"
"1.64","67.72916","0.8164"
"1.68","68.13526","0.8365667"
"1.72","69.40126","0.8568667"
"1.76","70.76343","0.8765666"
"1.8","72.10732","0.8964"
"1.84","73.60856","0.9166"
"1.88","75.04145","0.9368667"
"1.92","76.588","0.9566666"
"1.96","78.84661","0.9763667"
"2","81.19027","0.9967334"
"2.04","83.25656","1.016867"
"2.08","85.76314","1.036633"
"2.12","88.52243","1.056467"
"2.16","91.06398","1.076467"
"2.2","93.58724","1.096733"
"2.24","96.19792","1.116767"
"2.28","98.72437","1.136633"
"2.32","101.1387","1.156367"
"2.36","103.4347","1.176667"
"2.4","105.7124","1.196767"
"2.44","107.8741","1.216433"
"2.48","109.9865","1.236467"
"2.52","112.1847","1.256667"
"2.56","114.4012","1.276767"
"2.6","116.5946","1.296467"
"2.64","118.6792","1.3164"
"2.68","120.8059","1.336667"
"2.72","122.9803","1.356867"
"2.76","125.0307","1.3765"
"2.8","126.9476","1.3964"
"2.84","128.7619","1.416633"
"2.88","130.3951","1.436933"
"2.92","132.2643","1.456667"
"2.96","134.0532","1.476333"
"3","135.8032","1.496633"
"3.04","137.5882","1.516833"
"3.08","139.3763","1.536733"
"3.12","141.1136","1.556533"
"3.16","142.7674","1.5765"
"3.2","144.4189","1.596767"
"3.24","146.0465","1.616733"
"3.28","147.628","1.6366"
"3.32","149.1062","1.6564"
"3.36","150.5907","1.676633"
"3.4","152.1659","1.6968"
"3.44","153.7188","1.7164"
"3.48","155.1294","1.7364"
"3.52","156.5591","1.756667"
"3.56","158.0548","1.776867"
"3.6","159.4543","1.796433"
"3.64","160.7593","1.8163"
"3.68","162.0722","1.836667"
"3.72","163.4026","1.856833"
"3.76","164.7162","1.8766"
"3.8","165.9417","1.896333"
"3.84","167.0925","1.916567"
"3.88","168.434","1.936833"
"3.92","169.8327","1.956667"
"3.96","170.9851","1.976433"
"4","172.0794","1.9967"
"4.04","173.3033","2.016833"
"4.08","174.4954","2.0367"
"4.12","175.5031","2.056567"
"4.16","176.5156","2.076533"
"4.2","177.6814","2.096733"
"4.24","178.7726","2.116733"
"4.28","179.7978","2.136633"
"4.32","180.7872","2.1564"
"4.36","181.8736","2.1768"
"4.4","182.9632","2.196867"
"4.44","183.9368","2.216367"
"4.48","184.7696","2.2365"
"4.52","185.6502","2.256667"
"4.56","186.5641","2.276767"
"4.6","187.455","2.2964"
"4.64","188.2736","2.3164"
"4.68","189.1001","2.336633"
"4.72","189.9791","2.356833"
"4.76","190.7905","2.376533"
"4.8","191.4954","2.3964"
"4.84","192.1543","2.416633"
"4.88","192.8345","2.436833"
"4.92","193.4966","2.456667"
"4.96","194.0362","2.476367"
"5","194.5424","2.4967"
"5.04","195.1472","2.516767"
"5.08","195.7289","2.536633"
"5.12","196.1748","2.5565"
"5.16","196.4426","2.5765"
"5.2","196.7279","2.596833"
"5.24","196.9854","2.616767"
"5.28","197.0569","2.636633"
"5.32","196.8495","2.656433"
"5.36","196.6174","2.676733"
"5.4","196.3019","2.696833"
"5.44","195.7464","2.716467"
"5.48","194.9843","2.7365"
"5.52","194.1411","2.756667"
"5.56","193.3161","2.776733"
"5.6","192.3402","2.7964"
"5.64","191.129","2.8165"
"5.68","189.573","2.836667"
"5.72","187.7514","2.856833"
"5.76","185.6049","2.876567"
"5.8","182.9449","2.896367"
"5.84","179.8526","2.916567"
"5.88","176.2795","2.936867"
"5.92","172.4656","2.956633"
"5.96","168.6009","2.976367"
"6","164.7202","2.996633"
"6.04","160.3468","3.0168"
"6.08","156.6895","3.0367"
"6.12","153.7315","3.056567"
"6.16","151.2146","3.0765"
"6.2","149.0831","3.096733"
"6.24","147.0971","3.116733"
"6.28","144.8838","3.136633"
"6.32","142.045","3.1564"
"6.36","139.1784","3.1767"
"6.4","136.2133","3.1968"
"6.44","132.8921","3.2165"
"6.48","128.7731","3.236533"
"6.52","125.0903","3.256767"
"6.56","122.4486","3.276833"
"6.6","120.012","3.296433"
"6.64","117.2503","3.316467"
"6.68","114.8287","3.336633"
"6.72","112.6575","3.356867"
"6.76","110.7605","3.376567"
"6.8","108.85","3.3963"
"6.84","106.9132","3.416633"
"6.88","104.9844","3.436833"
"6.92","102.7679","3.456667"
"6.96","100.2264","3.476433"
"7","97.54419","3.496633"
"7.04","94.81986","3.516733"
"7.08","92.49925","3.5367"
"7.12","90.58475","3.5565"
"7.16","88.67422","3.576467"
"7.2","86.75496","3.5968"
"7.24","84.41209","3.616767"
"7.28","81.81254","3.6365"
"7.32","79.47047","3.656467"
"7.36","77.56949","3.676733"
"7.4","75.67485","3.696833"
"7.44","73.57041","3.7164"
"7.48","71.5216","3.736433"
"7.52","69.54829","3.7567"
"7.56","67.21178","3.7768"
"7.6","64.30864","3.796467"
"7.64","61.09158","3.816467"
"7.68","55.23364","3.836667"
"7.72","31.62622","3.8569"
"7.76","26.93335","3.876567"
"7.8","26.68142","3.896367"
"7.84","26.62897","3.916733"
"7.88","26.62102","3.936833"
"7.92","26.3389","3.956633"
"7.96","26.21571","3.976267"
"8","26.11319","3.996667"
"8.04","26.71242","4.016733"
"8.08","26.80063","4.036667"
"8.12","26.61228","4.0565"
"8.16","26.43506","4.076433"
"8.2","26.67507","4.0968"
"8.24","26.84037","4.1168"
"8.28","26.86262","4.136533"
"8.32","26.84514","4.1564"
"8.36","26.88408","4.176733"
"8.4","26.84196","4.1968"
"8.44","26.78156","4.216467"
"8.48","26.70447","4.236467"
"8.52","26.62341","4.2567"
"8.56","26.66791","4.276834"
"8.6","26.73785","4.2964"
"8.64","26.74659","4.316433"
"8.68","26.7156","4.3367"
"8.72","26.66791","4.356867"
"8.76","26.67109","4.376567"
"8.8","26.59003","4.396333"
"8.84","26.48354","4.416634"
"8.88","26.5185","4.4369"
"8.92","26.59559","4.456667"
"8.96","26.59003","4.476367"
"9","26.55745","4.4967"
"9.04","26.57096","4.5168"
"9.08","26.58208","4.536767"
"9.12","26.58129","4.556467"
"9.16","26.55268","4.576467"
"9.2","26.57255","4.5968"
"9.24","26.59003","4.616734"
"9.28","26.55983","4.6365"
"9.32","26.54791","4.656434"
"9.36","26.56619","4.676733"
"9.4","26.58447","4.696867"
"9.44","26.57413","4.7164"
"9.48","26.5638","4.736434"
"9.52","26.54155","4.756733"
"9.56","26.50579","4.776834"
"9.6","26.44539","4.796367"
"9.64","26.47003","4.8164"
"9.68","26.51056","4.8366"
"9.72","26.5034","4.8569"
"9.76","26.46287","4.8766"
"9.8","26.49864","4.896333"
"9.84","26.52407","4.9167"
"9.88","26.54155","4.936867"
"9.92","26.50976","4.9567"
"9.96","26.62341","4.9764"
"10","26.68222","4.996567"
"10.04","26.69811","5.0167"
"10.08","26.74898","5.0367"
"10.12","26.74421","5.0565"
"10.16","26.75533","5.0765"
"10.2","26.73467","5.096833"
"10.24","26.7307","5.116734"
"10.28","26.73308","5.136567"
"10.32","26.72593","5.156367"
"10.36","26.7156","5.1767"
"10.39","26.70606","5.1872"

File: PLA-IPA-5.csv
"1 _ 1",,
"Time","Force","Stroke"
"sec","N","mm"
"0","0.4617373","0.0001333333"
"0.04","0.6826718","0.01646667"
"0.08","6.77983","0.0363"
"0.12","14.70327","0.0565"
"0.16","23.26647","0.07683334"
"0.2","31.50781","0.09666667"
"0.24","39.76424","0.1165333"
"0.28","47.76478","0.1365667"
"0.32","55.72637","0.1568"
"0.36","61.48895","0.1769333"
"0.4","65.27424","0.1966"
"0.44","66.0634","0.2164333"
"0.48","66.38924","0.2366667"
"0.52","66.01015","0.257"
"0.56","66.18579","0.2765"
"0.6","67.52888","0.2964333"
"0.64","66.49574","0.3168"
"0.68","66.55137","0.3369"
"0.72","67.52014","0.3565333"
"0.76","66.72303","0.3765"
"0.8","67.22688","0.3967667"
"0.84","67.13152","0.4169667"
"0.88","67.04251","0.4367667"
"0.92","66.94238","0.4563333"
"0.96","66.81442","0.4766333"
"1","67.25867","0.4968667"
"1.04","67.27616","0.5168"
"1.08","69.2916","0.5365334"
"1.12","74.74661","0.5566"
"1.16","78.69323","0.5768334"
"1.2","80.89384","0.5967"
"1.24","82.6478","0.6165333"
"1.28","85.83864","0.6365333"
"1.32","92.21474","0.6567"
"1.36","99.31087","0.6768"
"1.4","105.47","0.6966"
"1.44","111.3049","0.7163333"
"1.48","113.4976","0.7367"
"1.52","114.7556","0.7570333"
"1.56","118.4336","0.7765667"
"1.6","124.4259","0.7964666"
"1.64","132.5639","0.8168"
"1.68","140.5231","0.8368334"
"1.72","148.2725","0.8564667"
"1.76","155.8566","0.8764334"
"1.8","163.4645","0.8966333"
"1.84","170.9851","0.9168333"
"1.88","178.4046","0.9368333"
"1.92","185.4014","0.9563667"
"1.96","191.9762","0.9767"
"2","198.9881","0.9968667"
"2.04","206.1884","1.0168"
"2.08","213.1112","1.036533"
"2.12","219.6582","1.056633"
"2.16","226.1758","1.076967"
"2.2","232.5916","1.0967"
"2.24","236.4103","1.1165"
"2.28","240.9442","1.136467"
"2.32","246.6838","1.1568"
"2.36","252.1292","1.176833"
"2.4","257.1432","1.196467"
"2.44","261.9092","1.216267"
"2.48","266.583","1.2367"
"2.52","271.2933","1.256933"
"2.56","275.6381","1.276467"
"2.6","279.6928","1.296433"
"2.64","283.7777","1.316733"
"2.68","288.0708","1.336833"
"2.72","292.12","1.3565"
"2.76","295.9728","1.376533"
"2.8","299.7684","1.396733"
"2.84","303.5498","1.416867"
"2.88","307.1332","1.4368"
"2.92","310.4138","1.456367"
"2.96","313.6309","1.476633"
"3","316.8766","1.496833"
"3.04","320.0992","1.516733"
"3.08","323.2312","1.536533"
"3.12","326.5055","1.556633"
"3.16","329.7631","1.577"
"3.2","332.8713","1.596767"
"3.24","335.629","1.6166"
"3.28","338.0291","1.636567"
"3.32","340.3036","1.656767"
"3.36","342.3746","1.676867"
"3.4","344.1985","1.696567"
"3.44","345.6426","1.716367"
"3.48","347.0635","1.736633"
"3.52","348.4734","1.7569"
"3.56","349.7068","1.776467"
"3.6","350.616","1.7965"
"3.64","351.3582","1.816667"
"3.68","352.1077","1.8368"
"3.72","352.7276","1.856533"
"3.76","353.1162","1.876533"
"3.8","353.4683","1.8966"
"3.84","353.8004","1.916867"
"3.88","354.077","1.936767"
"3.92","354.0055","1.9564"
"3.96","353.8783","1.976633"
"4","353.9165","1.996967"
"4.04","353.86","2.0168"
"4.08","353.3625","2.036533"
"4.12","352.5472","2.056633"
"4.16","351.7493","2.0769"
"4.2","350.9267","2.0967"
"4.24","349.8467","2.116567"
"4.28","348.6299","2.1365"
"4.32","347.4752","2.156767"
"4.36","346.2084","2.1769"
"4.4","344.5887","2.196667"
"4.44","342.6067","2.216433"
"4.48","340.5801","2.236733"
"4.52","338.4193","2.257"
"4.56","335.8452","2.276533"
"4.6","332.9102","2.2965"
"4.64","329.9483","2.3167"
"4.68","326.9378","2.336733"
"4.72","323.7955","2.3565"
"4.76","320.3352","2.3764"
"4.8","316.7876","2.396633"
"4.84","313.247","2.416867"
"4.88","309.5984","2.436767"
"4.92","305.9371","2.456333"
"4.96","302.5047","2.476633"
"5","299.3695","2.496933"
"5.04","296.034","2.516767"
"5.08","291.8299","2.5365"
"5.12","287.2133","2.556667"
"5.16","282.6413","2.5769"
"5.2","278.4936","2.596733"
"5.24","274.5318","2.616533"
"5.28","270.4946","2.636567"
"5.32","266.6163","2.656767"
"5.36","262.7261","2.6769"
"5.4","258.8638","2.696567"
"5.44","254.9736","2.7164"
"5.48","251.2089","2.7367"
"5.52","247.252","2.7571"
"5.56","243.2052","2.7765"
"5.6","238.5592","2.7965"
"5.64","233.5676","2.816733"
"5.68","228.1229","2.836833"
"5.72","222.1243","2.856567"
"5.76","214.9081","2.876533"
"5.8","207.3352","2.8966"
"5.84","197.9486","2.9169"
"5.88","185.4603","2.9367"
"5.92","167.4175","2.956333"
"5.96","138.8645","2.976633"
"6","117.7645","2.996833"
"6.04","108.4145","3.0168"
"6.08","101.6959","3.036533"
"6.12","96.35369","3.056667"
"6.16","91.72121","3.076833"
"6.2","87.11338","3.096733"
"6.24","81.30789","3.1166"
"6.28","74.07904","3.136567"
"6.32","61.26881","3.156867"
"6.36","31.52132","3.1769"
"6.4","30.34194","3.196567"
"6.44","30.31174","3.216433"
"6.48","30.27598","3.2367"
"6.52","30.26724","3.256933"
"6.56","30.26247","3.276533"
"6.6","30.27121","3.296533"
"6.64","30.25293","3.316733"
"6.68","30.25373","3.3369"
"6.72","30.25293","3.356567"
"6.76","30.26009","3.376433"
"6.8","30.25929","3.396733"
"6.84","30.26247","3.4169"
"6.88","30.26485","3.436767"
"6.92","30.21717","3.456367"
"6.96","30.23783","3.476667"
"7","30.23704","3.496867"
"7.04","30.26644","3.516733"
"7.08","30.25929","3.536533"
"7.12","30.24658","3.556533"
"7.16","30.25055","3.576767"
"7.2","30.25134","3.596633"
"7.24","30.25134","3.616567"
"7.28","30.2736","3.6365"
"7.32","30.2577","3.656833"
"7.36","30.25373","3.6769"
"7.4","30.26644","3.6966"
"7.44","30.2577","3.716467"
"7.48","30.25055","3.736733"
"7.52","30.24658","3.756967"
"7.56","30.25055","3.7765"
"7.6","30.25134","3.796467"
"7.64","30.24499","3.8167"
"7.68","30.24499","3.836833"
"7.72","30.26485","3.856533"
"7.76","30.25134","3.876467"
"7.8","30.25055","3.8967"
"7.84","30.2426","3.916867"
"7.88","30.24896","3.936833"
"7.92","30.26167","3.9564"
"7.96","30.25611","3.9767"
"8","30.25055","3.996833"
"8.04","30.25929","4.016733"
"8.08","30.24896","4.0365"
"8.12","30.25611","4.056633"
"8.16","30.26406","4.0768"
"8.2","30.25293","4.096767"
"8.24","30.2426","4.1165"
"8.28","30.25373","4.136467"
"8.32","30.26167","4.156767"
"8.36","30.25055","4.1768"
"8.4","30.25532","4.1966"
"8.44","30.26247","4.216434"
"8.48","30.26167","4.236667"
"8.52","30.25611","4.2569"
"8.56","30.24817","4.276534"
"8.6","30.24499","4.296534"
"8.64","30.25293","4.316767"
"8.68","30.28075","4.336867"
"8.72","30.25134","4.356567"
"8.76","30.25532","4.376433"
"8.8","30.25373","4.3967"
"8.84","30.26883","4.4169"
"8.88","30.25532","4.4367"
"8.92","30.24499","4.4563"
"8.96","30.26167","4.4767"
"9","30.24181","4.4969"
"9.04","30.26167","4.516767"
"9.08","30.26883","4.536533"
"9.12","30.25373","4.556667"
"9.15","30.25293","4.5673"