Folder: Modified-Jubilee/degradation_testing/tensile_testing/PLA/PLA_Acetone (part 2)

File: PLA-A-4.csv
"1 _ 1",,
"Time","Force","Stroke"
"sec","N","mm"
"0","0.5197525","6.666667E-05"
"0.03","0.5666415","0.01073333"
"0.06","2.731482","0.02596667"
"0.09","11.14051","0.04146667"
"0.12","21.49423","0.0566"
"0.15","31.9767","0.07163333"
"0.18","42.21678","0.0863"
"0.21","51.88783","0.1012"
"0.24","61.10509","0.1164333"
"0.27","66.4099","0.1317333"
"0.3","66.73495","0.1469333"
"0.33","66.78343","0.1617667"
"0.36","66.83747","0.1765667"
"0.39","66.85575","0.1913667"
"0.42","66.8772","0.2067"
"0.45","66.8335","0.2218333"
"0.48","66.85098","0.2368667"
"0.51","66.80886","0.2515"
"0.54","66.82873","0.2664"
"0.57","66.8478","0.2816"
"0.6","66.84621","0.2967333"
"0.63","66.84462","0.3118"
"0.66","66.83985","0.3266"
"0.69","66.85257","0.3414333"
"0.72","66.93124","0.3564333"
"0.75","66.998","0.3716667"
"0.78","67.02741","0.3868333"
"0.81","67.04251","0.4019"
"0.84","67.0441","0.4165334"
"0.87","67.04649","0.4314667"
"0.9","67.04649","0.4464333"
"0.93","67.06238","0.4616"
"0.96","67.11562","0.4768667"
"0.99","67.93658","0.4918"
"1.02","71.59869","0.5064667"
"1.05","78.90224","0.5213667"
"1.08","87.80956","0.5366667"
"1.11","97.10074","0.5517667"
"1.14","106.1479","0.5667"
"1.17","115.2277","0.5816"
"1.2","125.1761","0.5965"
"1.23","135.235","0.6114666"
"1.26","145.4314","0.6265666"
"1.29","155.468","0.6417333"
"1.32","165.3687","0.6567"
"1.35","175.2003","0.6714666"
"1.38","184.8332","0.6862333"
"1.41","194.3906","0.7015667"
"1.44","203.9615","0.7167667"
"1.47","213.6056","0.7318333"
"1.5","223.1948","0.7466"
"1.53","232.5439","0.7614667"
"1.56","241.5538","0.7765334"
"1.59","250.624","0.7916667"
"1.62","259.7117","0.8067667"
"1.65","268.7756","0.8217334"
"1.68","277.7131","0.8364"
"1.71","286.3836","0.8513667"
"1.74","294.869","0.8665667"
"1.77","303.3717","0.8817"
"1.8","311.7768","0.8969333"
"1.83","319.976","0.9118"
"1.86","327.9058","0.9266"
"1.89","335.5392","0.9413667"
"1.92","343.039","0.9566"
"1.95","350.3601","0.9717333"
"1.98","357.5388","0.9866667"
"2.01","364.4681","1.0014"
"2.04","371.0047","1.016367"
"2.07","377.3085","1.031567"
"2.1","383.5265","1.046867"
"2.13","389.7548","1.0617"
"2.16","395.7105","1.076667"
"2.19","401.4977","1.0915"
"2.22","407.0401","1.106467"
"2.25","412.6485","1.1217"
"2.28","418.3912","1.136867"
"2.31","424.068","1.151867"
"2.34","429.6796","1.166567"
"2.37","435.1227","1.181267"
"2.4","440.5109","1.196333"
"2.43","445.9468","1.211533"
"2.46","451.6602","1.226833"
"2.49","457.2344","1.2417"
"2.52","462.7069","1.256433"
"2.55","467.8655","1.2713"
"2.58","472.9629","1.286633"
"2.61","478.1349","1.301933"
"2.64","483.3221","1.316767"
"2.67","488.2908","1.331567"
"2.7","493.0059","1.3465"
"2.73","497.574","1.3615"
"2.76","502.0841","1.3766"
"2.79","506.4988","1.391733"
"2.82","510.6076","1.4068"
"2.85","514.4493","1.4215"
"2.88","517.7855","1.436367"
"2.91","520.9366","1.451567"
"2.94","523.7635","1.466767"
"2.97","526.3885","1.482"
"3","528.5089","1.4967"
"3.03","530.0983","1.511533"
"3.06","531.3635","1.526433"
"3.09","532.6271","1.5417"
"3.12","533.9797","1.556867"
"3.15","535.2354","1.571667"
"3.18","536.1382","1.5864"
"3.21","536.8224","1.601333"
"3.24","537.4646","1.6165"
"3.27","538.1465","1.6317"
"3.3","538.8403","1.646867"
"3.33","539.3656","1.6617"
"3.36","539.6851","1.6767"
"3.39","539.8075","1.691367"
"3.42","539.7606","1.706633"
"3.45","539.5921","1.721833"
"3.48","538.8983","1.736733"
"3.51","537.3414","1.751433"
"3.54","534.838","1.766367"
"3.57","531.7759","1.781567"
"3.6","528.4198","1.796733"
"3.63","524.9198","1.8117"
"3.66","521.1027","1.8266"
"3.69","516.9789","1.8414"
"3.72","512.6699","1.856367"
"3.75","508.345","1.871733"
"3.78","504.2108","1.886833"
"3.81","499.986","1.9019"
"3.84","495.4314","1.916467"
"3.87","490.4985","1.931533"
"3.9","485.5832","1.946367"
"3.93","480.667","1.961633"
"3.96","475.7261","1.976933"
"3.99","470.5858","1.991767"
"4.02","465.1101","2.006467"
"4.05","459.1711","2.0214"
"4.08","453.2862","2.036667"
"4.11","447.7127","2.052"
"4.14","442.4214","2.0668"
"4.17","437.2676","2.0816"
"4.2","432.361","2.096567"
"4.23","427.7301","2.111467"
"4.26","423.5887","2.126633"
"4.29","419.8146","2.1418"
"4.32","416.2177","2.156767"
"4.35","412.9052","2.1715"
"4.38","409.7835","2.186233"
"4.41","407.06","2.201533"
"4.44","404.7116","2.216767"
"4.47","402.8479","2.2319"
"4.5","401.0002","2.2466"
"4.53","399.0428","2.261533"
"4.56","397.0146","2.276433"
"4.59","395.0214","2.291767"
"4.62","393.0529","2.306867"
"4.65","391.0971","2.321667"
"4.68","388.9235","2.3364"
"4.71","386.5743","2.351433"
"4.74","384.1599","2.366567"
"4.77","381.1105","2.381667"
"4.8","377.4357","2.3969"
"4.83","373.253","2.4117"
"4.86","368.7652","2.4266"
"4.89","364.1168","2.4413"
"4.92","359.1553","2.456533"
"4.95","354.1541","2.471733"
"4.98","349.3953","2.486767"
"5.01","344.6388","2.5015"
"5.04","338.9048","2.5164"
"5.07","332.5343","2.531567"
"5.1","326.1288","2.5468"
"5.13","319.953","2.561733"
"5.16","313.8113","2.576733"
"5.19","307.9041","2.591533"
"5.22","302.399","2.6065"
"5.25","297.2945","2.6217"
"5.28","292.6389","2.636733"
"5.31","288.3879","2.6519"
"5.34","284.4246","2.666567"
"5.37","280.1577","2.6814"
"5.4","275.1613","2.696367"
"5.43","270.5797","2.7116"
"5.46","266.242","2.726833"
"5.49","261.6024","2.741767"
"5.52","257.1527","2.7565"
"5.55","252.7944","2.7714"
"5.58","248.4178","2.786733"
"5.61","243.7631","2.801833"
"5.64","238.4321","2.816767"
"5.67","232.7935","2.8315"
"5.7","227.7652","2.8465"
"5.73","223.5373","2.861433"
"5.76","219.4675","2.876667"
"5.79","213.3846","2.891767"
"5.82","205.0654","2.906733"
"5.85","196.7764","2.9215"
"5.88","185.1988","2.9364"
"5.91","175.1693","2.951567"
"5.94","167.2522","2.9668"
"5.97","161.7996","2.981933"
"6","157.7059","2.9966"
"6.03","154.4134","3.011467"
"6.06","150.9897","3.026467"
"6.09","147.2839","3.0417"
"6.12","142.7738","3.0568"
"6.15","139.37","3.071667"
"6.18","136.6615","3.086333"
"6.21","133.6153","3.101333"
"6.24","128.1413","3.116533"
"6.27","116.7711","3.131733"
"6.3","108.2174","3.146933"
"6.33","103.8671","3.1618"
"6.36","100.3273","3.176633"
"6.39","97.09914","3.191433"
"6.42","94.1054","3.2066"
"6.45","92.02003","3.221833"
"6.48","90.16275","3.236833"
"6.51","88.28004","3.251467"
"6.54","86.47363","3.266367"
"6.57","84.8484","3.281567"
"6.6","82.9196","3.296733"
"6.63","81.01225","3.3118"
"6.66","79.28213","3.3266"
"6.69","77.76181","3.341467"
"6.72","75.86241","3.356433"
"6.75","73.81121","3.371633"
"6.78","71.47868","3.386833"
"6.81","68.51594","3.4019"
"6.84","60.58455","3.416567"
"6.87","34.36009","3.431433"
"6.9","30.67175","3.446467"
"6.93","30.66858","3.461567"
"6.96","30.73295","3.4769"
"6.99","30.71705","3.491667"
"7.02","30.65507","3.5065"
"7.05","30.66619","3.521367"
"7.08","30.68844","3.5367"
"7.11","30.66063","3.551867"
"7.14","30.62963","3.566767"
"7.17","30.62169","3.581567"
"7.2","30.63281","3.596533"
"7.23","30.6344","3.611533"
"7.26","30.62089","3.626567"
"7.29","30.63838","3.641733"
"7.32","30.67017","3.6567"
"7.35","30.66063","3.671433"
"7.38","30.65666","3.686367"
"7.41","30.66619","3.701533"
"7.44","30.69003","3.716733"
"7.47","30.68527","3.731867"
"7.5","30.65268","3.746667"
"7.53","30.64791","3.761533"
"7.56","30.67017","3.7765"
"7.59","30.66301","3.791733"
"7.62","30.65507","3.806767"
"7.65","30.62169","3.821733"
"7.68","30.64156","3.836433"
"7.71","30.65745","3.8514"
"7.74","30.66381","3.866533"
"7.77","30.67414","3.881667"
"7.8","30.65904","3.8969"
"7.83","30.67414","3.9117"
"7.86","30.66858","3.9266"
"7.89","30.69719","3.9414"
"7.92","30.68288","3.9566"
"7.95","30.66142","3.971833"
"7.98","30.66619","3.986733"
"8.01","30.65745","4.0015"
"8.04","30.65268","4.016366"
"8.07","30.65268","4.031567"
"8.1","30.64394","4.046767"
"8.13","30.65189","4.061733"
"8.16","30.67652","4.076667"
"8.19","30.67255","4.091467"
"8.22","30.68844","4.106433"
"8.25","30.67493","4.121667"
"8.28","30.66063","4.136833"
"8.31","30.68368","4.147567"

File: PLA-A-5.csv
"1 _ 1",,
"Time","Force","Stroke"
"sec","N","mm"
"0","0.3568331","0.0001"
"0.04","0.8765857","0.0167"
"0.08","11.81126","0.03663334"
"0.12","27.55562","0.05646667"
"0.16","41.90604","0.07636667"
"0.2","53.38113","0.09676667"
"0.24","54.60183","0.1169"
"0.28","54.79892","0.1366"
"0.32","54.79654","0.1565"
"0.36","54.80051","0.1766667"
"0.4","54.74567","0.1969667"
"0.44","54.63441","0.2164333"
"0.48","54.57957","0.2364333"
"0.52","54.58673","0.2566667"
"0.56","54.63203","0.2767333"
"0.6","54.66541","0.2965"
"0.64","54.7115","0.3163667"
"0.68","54.84581","0.3367"
"0.72","54.96343","0.3569333"
"0.76","54.96581","0.3767"
"0.8","54.94197","0.3965"
"0.84","54.86329","0.4167333"
"0.88","54.86568","0.4369"
"0.92","55.42914","0.4567667"
"0.96","63.28106","0.4764667"
"1","73.27557","0.4966"
"1.04","83.19378","0.5169"
"1.08","98.7045","0.5367"
"1.12","113.7058","0.5565"
"1.16","128.4512","0.5765333"
"1.2","143.6122","0.5967"
"1.24","158.6692","0.6168666"
"1.28","173.4265","0.6365"
"1.32","187.2412","0.6562667"
"1.36","201.3461","0.6766"
"1.4","215.9198","0.6968667"
"1.44","229.8141","0.7164667"
"1.48","243.1202","0.7364"
"1.52","256.2578","0.7567"
"1.56","268.9481","0.7768667"
"1.6","280.5877","0.7965333"
"1.64","292.0373","0.8164667"
"1.68","302.968","0.8367667"
"1.72","313.7676","0.8567667"
"1.76","323.9504","0.8767"
"1.8","333.5325","0.8965"
"1.84","342.6425","0.9165"
"1.88","351.5355","0.9367334"
"1.92","360.4142","0.9567667"
"1.96","369.0465","0.9765"
"2","377.3109","0.9965667"
"2.04","385.5817","1.016967"
"2.08","393.8707","1.036733"
"2.12","401.965","1.0566"
"2.16","409.8709","1.0765"
"2.2","417.8929","1.096767"
"2.24","425.9849","1.116867"
"2.28","433.9433","1.136567"
"2.32","441.6212","1.1563"
"2.36","449.3149","1.176633"
"2.4","457.1875","1.1968"
"2.44","464.6063","1.216467"
"2.48","471.6698","1.236433"
"2.52","478.8748","1.2567"
"2.56","486.3517","1.2768"
"2.6","493.78","1.296467"
"2.64","500.8833","1.3164"
"2.68","507.7275","1.3367"
"2.72","514.6209","1.356767"
"2.76","521.4103","1.376733"
"2.8","527.9557","1.396533"
"2.84","534.3882","1.4166"
"2.88","540.8017","1.436867"
"2.92","547.1357","1.456667"
"2.96","552.9181","1.4765"
"3","558.4319","1.496567"
"3.04","563.8448","1.5169"
"3.08","569.1123","1.536667"
"3.12","574.1262","1.556533"
"3.16","578.2533","1.576467"
"3.2","580.922","1.596833"
"3.24","581.5577","1.616933"
"3.28","577.9814","1.636633"
"3.32","568.3621","1.6564"
"3.36","554.8604","1.6766"
"3.4","540.777","1.696967"
"3.44","527.7467","1.716467"
"3.48","516.0204","1.7365"
"3.52","506.1777","1.756767"
"3.56","497.8998","1.7768"
"3.6","490.458","1.7965"
"3.64","483.4453","1.8165"
"3.68","477.0637","1.836733"
"3.72","471.1715","1.856833"
"3.76","465.3684","1.8767"
"3.8","459.5709","1.896467"
"3.84","454.1135","1.916567"
"3.88","448.9835","1.936833"
"3.92","444.0093","1.956767"
"3.96","438.772","1.976567"
"4","433.0492","1.996567"
"4.04","427.5123","2.016933"
"4.08","422.3156","2.036667"
"4.12","417.0855","2.0566"
"4.16","411.8665","2.076533"
"4.2","406.932","2.096667"
"4.24","402.3178","2.116867"
"4.28","397.7648","2.1365"
"4.32","392.9384","2.156367"
"4.36","388.6183","2.1766"
"4.4","384.7551","2.196933"
"4.44","380.7616","2.216467"
"4.48","376.5948","2.236533"
"4.52","372.8652","2.256767"
"4.56","369.5099","2.276867"
"4.6","366.2284","2.296533"
"4.64","363.2307","2.316433"
"4.68","360.6081","2.336733"
"4.72","358.39","2.356767"
"4.76","356.3007","2.376633"
"4.8","354.2344","2.3964"
"4.84","352.4558","2.4166"
"4.88","350.8774","2.436833"
"4.92","349.0941","2.456733"
"4.96","346.9046","2.476533"
"5","344.3368","2.496633"
"5.04","342.2904","2.5169"
"5.08","340.6072","2.536733"
"5.12","338.7157","2.5565"
"5.16","336.6407","2.576467"
"5.2","334.5958","2.596767"
"5.24","332.5311","2.616867"
"5.28","330.3957","2.636433"
"5.32","327.8105","2.6564"
"5.36","324.7531","2.676633"
"5.4","320.5577","2.696933"
"5.44","316.2821","2.716467"
"5.48","312.6216","2.736467"
"5.52","309.9664","2.756767"
"5.56","308.0392","2.776733"
"5.6","306.4084","2.796533"
"5.64","304.6783","2.816433"
"5.68","301.9913","2.836733"
"5.72","299.9314","2.856867"
"5.76","298.3801","2.876733"
"5.8","296.824","2.896433"
"5.84","295.4022","2.916667"
"5.88","293.7222","2.936833"
"5.92","290.7594","2.956733"
"5.96","286.7579","2.9765"
"6","280.6361","2.996533"
"6.04","275.9949","3.016867"
"6.08","271.5516","3.036767"
"6.12","266.6378","3.0566"
"6.16","261.0517","3.076433"
"6.2","254.6199","3.096833"
"6.24","249.4971","3.116933"
"6.28","244.9489","3.1366"
"6.32","239.5018","3.156433"
"6.36","234.0976","3.176633"
"6.4","228.9748","3.196967"
"6.44","224.2271","3.2164"
"6.48","219.7186","3.236467"
"6.52","216.2679","3.2568"
"6.56","213.6731","3.2767"
"6.6","210.9679","3.296533"
"6.64","208.447","3.3164"
"6.68","206.4403","3.336767"
"6.72","204.8103","3.3569"
"6.76","203.1438","3.3767"
"6.8","200.9964","3.396433"
"6.84","199.5468","3.416633"
"6.88","197.8437","3.4369"
"6.92","192.5111","3.456733"
"6.96","187.0298","3.476567"
"7","184.1275","3.496633"
"7.04","181.6273","3.516867"
"7.08","179.8415","3.5366"
"7.12","178.1249","3.556533"
"7.16","176.2811","3.576433"
"7.2","175.031","3.596767"
"7.24","174.0964","3.616833"
"7.28","173.3049","3.636567"
"7.32","172.6452","3.6565"
"7.36","172.0993","3.676667"
"7.4","171.5175","3.697"
"7.44","170.7681","3.7165"
"7.48","169.5228","3.736433"
"7.52","168.6064","3.756733"
"7.56","167.9079","3.7769"
"7.6","166.5997","3.7965"
"7.64","164.2609","3.816367"
"7.68","162.0205","3.836667"
"7.72","159.7865","3.8568"
"7.76","158.2169","3.876733"
"7.8","156.4757","3.8965"
"7.84","153.8626","3.916567"
"7.88","150.6464","3.936833"
"7.92","146.0044","3.956767"
"7.96","136.927","3.976533"
"8","131.6674","3.9966"
"8.04","128.3765","4.016867"
"8.08","125.5584","4.036733"
"8.12","123.0582","4.056567"
"8.16","121.9702","4.0765"
"8.2","121.3638","4.096767"
"8.24","120.875","4.116967"
"8.28","120.5659","4.136567"
"8.32","120.2981","4.156434"
"8.36","120.2329","4.1766"
"8.4","120.2909","4.196933"
"8.44","120.3624","4.216434"
"8.48","120.3179","4.236434"
"8.52","120.3195","4.256667"
"8.56","120.4316","4.276767"
"8.6","120.4944","4.296566"
"8.64","120.4626","4.316467"
"8.68","120.4109","4.336767"
"8.72","120.4491","4.356867"
"8.76","120.4363","4.3767"
"8.8","120.3219","4.396467"
"8.84","120.2257","4.416634"
"8.88","120.275","4.4368"
"8.92","120.2909","4.456667"
"8.96","120.2401","4.476433"
"9","120.0899","4.496567"
"9.04","119.9269","4.516933"
"9.08","119.5534","4.5367"
"9.12","118.8644","4.5566"
"9.16","117.6174","4.5765"
"9.2","115.1609","4.596767"
"9.24","112.613","4.616933"
"9.28","110.7271","4.6366"
"9.32","108.6473","4.656466"
"9.36","103.2726","4.676567"
"9.4","99.9252","4.6969"
"9.44","97.87241","4.716467"
"9.48","95.97063","4.736467"
"9.52","93.24471","4.7567"
"9.56","85.27358","4.776834"
"9.6","77.87784","4.796566"
"9.64","73.23981","4.8164"
"9.68","60.08069","4.836767"
"9.72","20.10584","4.856833"
"9.76","18.50685","4.876767"
"9.8","18.48857","4.896467"
"9.84","18.47824","4.916567"
"9.88","18.48062","4.9369"
"9.92","18.47744","4.956767"
"9.96","18.48618","4.976533"
"10","18.49492","4.996567"
"10.04","18.47506","5.0169"
"10.08","18.44486","5.0366"
"10.12","18.40194","5.056567"
"10.16","18.40035","5.0765"
"10.2","18.3924","5.0967"
"10.24","18.38446","5.1169"
"10.28","18.38605","5.1366"
"10.32","18.4083","5.1565"
"10.36","18.41784","5.176633"
"10.4","18.42022","5.196933"
"10.44","18.43929","5.2164"
"10.48","18.45121","5.236434"
"10.52","18.47108","5.256667"
"10.56","18.4536","5.276834"
"10.6","18.43532","5.296534"
"10.64","18.41068","5.3164"
"10.68","18.40591","5.3367"
"10.72","18.3781","5.356833"
"10.76","18.36856","5.376733"
"10.8","18.36618","5.3965"
"10.84","18.37333","5.416667"
"10.88","18.40353","5.436833"
"10.9","18.39956","5.441433"