Folder: Modified-Jubilee/degradation_testing/tensile_testing/PLA/PLA_IPA

Note: README.md
# Modified Jubilee  
### Master‚Äôs Thesis Design Files & Documentation  

---

## üìò Overview

This repository contains all design files, mechanical models, firmware, scripts, and supporting documentation used in the development of my Master‚Äôs thesis:

**‚ÄúDESIGN, MODIFICATION, AND EVALUATION OF THE JUBILEE  
OPEN-SOURCE MOTION PLATFORM FOR AUTOMATED DIP COATING‚Äù**

This repository exists to support replication, modification, and extension of the system in alignment with open-source hardware principles.

File: PLA-IPA-1.csv
"1 _ 1",,
"Time","Force","Stroke"
"sec","N","mm"
"0","0.3266335","6.666667E-05"
"0.07","2.417564","0.03143333"
"0.14","11.57522","0.0663"
"0.21","20.4126","0.1016333"
"0.28","27.14316","0.1368333"
"0.35","32.28664","0.1713667"
"0.42","40.38413","0.2069667"
"0.49","42.86687","0.2415"
"0.56","44.50162","0.2768"
"0.63","50.76647","0.3114333"
"0.7","55.59285","0.3465667"
"0.77","58.3903","0.3819"
"0.84","65.72882","0.4162667"
"0.91","66.45998","0.4518"
"0.98","66.49653","0.4865"
"1.05","66.36699","0.5217333"
"1.12","65.84326","0.5566667"
"1.19","66.38448","0.5915"
"1.26","68.46984","0.6268667"
"1.33","70.85721","0.6613333"
"1.4","75.78532","0.6968"
"1.47","83.16596","0.7314333"
"1.54","92.55965","0.7667667"
"1.61","101.56","0.8018"
"1.68","110.2471","0.8364"
"1.75","118.6752","0.8717667"
"1.82","127.3553","0.9065667"
"1.89","135.4527","0.9415"
"1.96","143.7322","0.9766"
"2.03","150.9778","1.011533"
"2.1","158.6167","1.046867"
"2.17","165.8948","1.081433"
"2.24","173.4209","1.116833"
"2.31","180.455","1.151533"
"2.38","187.0124","1.1866"
"2.45","193.8041","1.2217"
"2.52","200.3407","1.256467"
"2.59","206.7351","1.291733"
"2.66","212.9928","1.326533"
"2.73","218.7443","1.361767"
"2.8","224.4027","1.3966"
"2.87","229.6479","1.4316"
"2.94","235.0005","1.466767"
"3.01","237.0389","1.501367"
"3.08","239.0607","1.5367"
"3.15","243.7043","1.5715"
"3.22","247.8043","1.606633"
"3.29","251.9957","1.641667"
"3.36","255.7627","1.6764"
"3.43","259.5552","1.7119"
"3.5","263.1521","1.7464"
"3.57","266.3795","1.781867"
"3.64","269.4734","1.8164"
"3.71","272.2335","1.8516"
"3.78","275.3154","1.8868"
"3.85","278.0175","1.9214"
"3.92","280.8929","1.956967"
"3.99","283.5075","1.9916"
"4.06","285.7892","2.026767"
"4.13","288.3339","2.061533"
"4.2","290.6394","2.0966"
"4.27","293.1054","2.1318"
"4.34","295.3768","2.166333"
"4.41","297.6672","2.201867"
"4.48","299.9052","2.236567"
"4.55","301.8538","2.271633"
"4.62","304.0536","2.3067"
"4.69","306.0087","2.341467"
"4.76","308.1028","2.376867"
"4.83","309.7495","2.411367"
"4.9","311.3326","2.446733"
"4.97","313.0197","2.481467"
"5.04","314.3517","2.516767"
"5.11","315.9006","2.551633"
"5.18","317.2874","2.586467"
"5.25","318.6425","2.6218"
"5.32","319.8354","2.656567"
"5.39","320.8701","2.691633"
"5.46","322.1273","2.726633"
"5.53","322.9793","2.761467"
"5.6","323.7438","2.7968"
"5.67","324.161","2.8314"
"5.74","324.5529","2.866833"
"5.81","324.9971","2.901533"
"5.88","325.1608","2.936633"
"5.95","325.5208","2.971733"
"6.02","325.2157","3.0064"
"6.09","324.6069","3.041767"
"6.16","323.445","3.076467"
"6.23","322.1472","3.1117"
"6.3","321.0243","3.1466"
"6.37","319.5182","3.1816"
"6.44","317.8628","3.216767"
"6.51","315.6416","3.251467"
"6.58","313.2494","3.2868"
"6.65","310.7023","3.321467"
"6.72","307.7857","3.356567"
"6.79","304.4685","3.391767"
"6.86","299.8074","3.426433"
"6.93","294.4406","3.461967"
"7","288.5358","3.496367"
"7.07","281.1265","3.531833"
"7.14","273.0568","3.566367"
"7.21","263.0687","3.601767"
"7.28","251.1168","3.6368"
"7.35","235.3986","3.6714"
"7.42","216.616","3.707"
"7.49","192.7662","3.741533"
"7.56","161.2663","3.7768"
"7.63","153.1895","3.8116"
"7.7","149.7769","3.8465"
"7.77","148.0762","3.8819"
"7.84","146.1045","3.916333"
"7.91","144.7161","3.951767"
"7.98","143.8046","3.986433"
"8.05","142.7356","4.021667"
"8.12","142.0339","4.0567"
"8.19","140.9419","4.0915"
"8.26","140.0296","4.126966"
"8.33","138.3575","4.161433"
"8.4","137.105","4.1967"
"8.47","135.7826","4.2315"
"8.54","134.0469","4.266634"
"8.61","132.3477","4.301667"
"8.68","130.4976","4.3366"
"8.75","128.3503","4.3718"
"8.82","125.9112","4.406633"
"8.89","122.6632","4.4416"
"8.96","118.3399","4.476533"
"9.03","113.728","4.511567"
"9.1","109.3499","4.546733"
"9.17","104.5879","4.5814"
"9.24","100.1199","4.6168"
"9.31","95.68533","4.651534"
"9.38","91.31352","4.686666"
"9.45","87.04185","4.7217"
"9.52","82.71297","4.7564"
"9.59","78.43653","4.791733"
"9.66","74.9588","4.826433"
"9.73","71.41908","4.861733"
"9.8","66.80568","4.8966"
"9.87","61.56683","4.9316"
"9.94","59.26688","4.9668"
"10.01","55.53007","5.001433"
"10.08","30.08127","5.036734"
"10.15","26.03134","5.071467"
"10.22","25.96378","5.1067"
"10.29","26.03769","5.1417"
"10.36","26.01782","5.1764"
"10.43","25.96855","5.211967"
"10.5","25.90179","5.246367"
"10.57","25.95027","5.2819"
"10.64","25.93756","5.316433"
"10.71","25.95981","5.351667"
"10.78","25.97491","5.3867"
"10.85","25.92166","5.421433"
"10.92","26.00034","5.456867"
"10.99","25.92882","5.4915"
"11.06","25.95663","5.5268"
"11.13","25.95663","5.561533"
"11.2","25.97968","5.5966"
"11.27","25.95663","5.6318"
"11.34","25.98127","5.666234"
"11.41","25.9463","5.7018"
"11.48","25.95981","5.736533"
"11.55","25.95663","5.771667"
"11.62","25.97332","5.806667"
"11.69","25.95266","5.841567"
"11.76","25.96219","5.876934"
"11.83","25.95981","5.911334"
"11.9","25.94868","5.9468"
"11.97","25.94868","5.9814"
"12.04","25.95345","6.0167"
"12.11","25.94551","6.051767"
"12.18","25.95266","6.086467"
"12.25","25.94551","6.121833"
"12.32","25.94868","6.1566"
"12.39","25.95345","6.1916"
"12.46","25.94233","6.226567"
"12.53","25.95981","6.261533"
"12.6","25.97252","6.296767"
"12.67","25.96617","6.3314"
"12.74","25.95027","6.366833"
"12.81","25.93438","6.401567"
"12.88","25.94789","6.436567"
"12.95","25.94551","6.471667"
"13.02","25.95027","6.5065"
"13.09","25.94789","6.541733"
"13.16","25.95027","6.5765"
"13.23","25.93994","6.6118"
"13.3","25.95743","6.646567"
"13.37","25.94551","6.681633"
"13.44","25.95107","6.716867"
"13.51","25.94233","6.751433"
"13.58","25.94391","6.7868"
"13.65","25.93915","6.821533"
"13.72","25.95027","6.856467"
"13.79","25.94153","6.891734"
"13.86","25.94391","6.926467"
"13.93","25.93994","6.9619"
"14","25.95107","6.996334"
"14.07","25.93676","7.0319"
"14.14","25.94233","7.066433"
"14.21","25.95345","7.101667"
"14.28","25.94551","7.1368"
"14.35","25.95027","7.171367"
"14.42","25.94868","7.206933"
"14.49","25.95663","7.241533"
"14.56","25.94233","7.276767"
"14.63","25.93756","7.3115"
"14.7","25.95663","7.3466"
"14.77","25.92882","7.3819"
"14.84","25.94551","7.416267"
"14.91","25.95107","7.451833"
"14.98","25.94233","7.486367"
"15.05","25.93279","7.521634"
"15.12","25.93756","7.556667"
"15.19","25.9312","7.591533"
"15.26","25.93517","7.6269"
"15.33","25.95266","7.6615"
"15.4","25.95107","7.696733"
"15.47","25.9463","7.731433"
"15.54","25.96776","7.7667"
"15.61","25.95743","7.8017"
"15.68","25.93994","7.836433"
"15.75","25.93915","7.8719"
"15.82","25.95743","7.906533"
"15.89","25.95027","7.941567"
"15.96","25.93915","7.9767"
"16.03","25.93676","8.011567"
"16.1","25.93915","8.046833"
"16.17","25.93915","8.081367"
"16.24","25.94551","8.1168"
"16.31","25.92802","8.151533"
"16.38","25.9463","8.186666"
"16.45","25.94551","8.221733"
"16.52","25.95743","8.256467"
"16.59","25.95345","8.291767"
"16.66","25.93756","8.3265"
"16.73","25.95345","8.3617"
"16.8","25.92643","8.396566"
"16.87","25.94551","8.431666"
"16.94","25.95107","8.466833"
"17.01","25.95107","8.501433"
"17.08","25.94153","8.536867"
"17.15","25.95663","8.571433"
"17.22","25.94153","8.6066"
"17.29","25.93756","8.641733"
"17.36","25.94153","8.676367"
"17.43","25.94153","8.711967"
"17.5","25.9304","8.746333"
"17.57","25.93279","8.7819"
"17.64","25.94153","8.816466"
"17.71","25.9312","8.851666"
"17.78","25.92643","8.886766"
"17.85","25.93756","8.921333"
"17.92","25.94233","8.956867"
"17.99","25.93994","8.991467"
"18.06","25.95901","9.026733"
"18.13","25.94391","9.061633"
"18.2","25.93994","9.096601"
"18.25","25.93438","9.114634"

File: PLA-IPA-2.csv
"1 _ 1",,
"Time","Force","Stroke"
"sec","N","mm"
"0","0.149409","0.0001666667"
"0.04","0.3465017","0.0167"
"0.08","5.799929","0.0365"
"0.12","12.7085","0.05636667"
"0.16","17.72006","0.0767"
"0.2","19.07587","0.09683333"
"0.24","18.37095","0.1167"
"0.28","20.21948","0.1365"
"0.32","25.42734","0.1567"
"0.36","29.44231","0.1769"
"0.4","31.16528","0.1967"
"0.44","32.42493","0.2164333"
"0.48","35.07296","0.2366667"
"0.52","41.50947","0.257"
"0.56","44.38321","0.2766333"
"0.6","43.27933","0.2965667"
"0.64","43.33814","0.3164667"
"0.68","43.66954","0.3368"
"0.72","43.74822","0.3569333"
"0.76","43.49788","0.3766667"
"0.8","43.11164","0.3965"
"0.84","43.32622","0.4167"
"0.88","43.5694","0.4369"
"0.92","44.8974","0.4565667"
"0.96","47.29509","0.4764667"
"1","49.04429","0.4967"
"1.04","52.3599","0.5168"
"1.08","57.6814","0.5365"
"1.12","64.59713","0.5563334"
"1.16","70.54726","0.5767667"
"1.2","76.93688","0.5969"
"1.24","84.13235","0.6166667"
"1.28","91.03457","0.6364667"
"1.32","97.26206","0.6566"
"1.36","103.3529","0.6769333"
"1.4","110.2344","0.6967"
"1.44","116.4413","0.7165"
"1.48","121.4862","0.7366"
"1.52","127.6294","0.7569"
"1.56","134.6882","0.7766667"
"1.6","140.241","0.7966667"
"1.64","145.1794","0.8165"
"1.68","151.2933","0.8367667"
"1.72","157.3968","0.8568333"
"1.76","161.8306","0.8766"
"1.8","166.978","0.8964"
"1.84","172.8392","0.9165667"
"1.88","177.8269","0.9369"
"1.92","180.1451","0.9564"
"1.96","182.8337","0.9764667"
"2","187.4169","0.9967667"
"2.04","191.497","1.0169"
"2.08","195.7401","1.036567"
"2.12","199.8623","1.056467"
"2.16","203.7938","1.076767"
"2.2","207.7866","1.096867"
"2.24","211.5655","1.1167"
"2.28","215.1688","1.136467"
"2.32","218.7912","1.1566"
"2.36","222.3802","1.176733"
"2.4","225.8539","1.196667"
"2.44","229.2871","1.2165"
"2.48","232.5511","1.236667"
"2.52","235.8214","1.256933"
"2.56","238.9852","1.276733"
"2.6","241.9543","1.296633"
"2.64","244.7613","1.3166"
"2.68","247.6557","1.336767"
"2.72","250.5287","1.356867"
"2.76","253.2148","1.376533"
"2.8","255.6936","1.396367"
"2.84","258.2844","1.4167"
"2.88","260.9094","1.436933"
"2.92","263.1712","1.4564"
"2.96","265.2597","1.476533"
"3","267.3983","1.496667"
"3.04","269.5815","1.516833"
"3.08","271.9307","1.5365"
"3.12","274.1758","1.556433"
"3.16","276.3923","1.576767"
"3.2","278.6684","1.596867"
"3.24","280.7752","1.616667"
"3.28","282.7184","1.636533"
"3.32","284.6201","1.656733"
"3.36","286.5172","1.676833"
"3.4","288.2902","1.696767"
"3.44","289.8788","1.7165"
"3.48","291.2704","1.736567"
"3.52","292.7415","1.756967"
"3.56","294.3428","1.776667"
"3.6","295.7376","1.796567"
"3.64","297.0894","1.8165"
"3.68","298.5032","1.836767"
"3.72","299.9894","1.8569"
"3.76","301.3563","1.876633"
"3.8","302.3799","1.896433"
"3.84","303.3988","1.916633"
"3.88","304.5646","1.936933"
"3.92","305.7416","1.956467"
"3.96","306.658","1.9765"
"4","307.5512","1.996667"
"4.04","308.5955","2.0168"
"4.08","309.5563","2.036433"
"4.12","310.2938","2.056533"
"4.16","311.0583","2.076733"
"4.2","311.7967","2.0968"
"4.24","312.3776","2.1167"
"4.28","312.8314","2.136433"
"4.32","313.2995","2.156567"
"4.36","313.9011","2.176867"
"4.4","314.4956","2.196767"
"4.44","314.8373","2.2165"
"4.48","315.1226","2.236667"
"4.52","315.5414","2.2569"
"4.56","315.872","2.276733"
"4.6","315.9229","2.296633"
"4.64","315.7806","2.3166"
"4.68","315.6646","2.336767"
"4.72","315.5176","2.3568"
"4.76","315.3117","2.3766"
"4.8","314.9644","2.3964"
"4.84","314.6339","2.416633"
"4.88","314.2715","2.436867"
"4.92","313.6714","2.4565"
"4.96","312.9109","2.4765"
"5","312.0907","2.496833"
"5.04","311.319","2.516833"
"5.08","310.4035","2.5365"
"5.12","309.418","2.5564"
"5.16","308.4151","2.5767"
"5.2","307.5782","2.5969"
"5.24","306.6349","2.616633"
"5.28","305.3999","2.636367"
"5.32","304.1514","2.656633"
"5.36","302.9641","2.676833"
"5.4","301.644","2.6968"
"5.44","299.952","2.716567"
"5.48","297.9453","2.736633"
"5.52","295.7606","2.7569"
"5.56","293.5282","2.776733"
"5.6","290.8508","2.796567"
"5.64","288.0518","2.816467"
"5.68","285.1375","2.836833"
"5.72","281.9562","2.8569"
"5.76","278.2615","2.876567"
"5.8","274.0614","2.896433"
"5.84","269.7166","2.9167"
"5.88","265.0483","2.937"
"5.92","259.6291","2.956433"
"5.96","253.2681","2.976467"
"6","246.8363","2.996767"
"6.04","239.9325","3.0168"
"6.08","231.3964","3.036533"
"6.12","221.2143","3.056467"
"6.16","207.9145","3.076733"
"6.2","184.5368","3.096933"
"6.24","146.0425","3.1167"
"6.28","129.8547","3.136433"
"6.32","122.2658","3.156733"
"6.36","118.711","3.1768"
"6.4","116.1726","3.196733"
"6.44","114.3448","3.216433"
"6.48","112.7831","3.236633"
"6.52","111.1412","3.256833"
"6.56","109.81","3.2767"
"6.6","108.4797","3.2966"
"6.64","107.0793","3.3165"
"6.68","105.3031","3.336867"
"6.72","103.6286","3.356933"
"6.76","102.3118","3.376567"
"6.8","101.0497","3.396433"
"6.84","99.68042","3.4167"
"6.88","98.22448","3.436933"
"6.92","96.8941","3.456467"
"6.96","95.56532","3.476467"
"7","94.23653","3.496733"
"7.04","92.57714","3.516833"
"7.08","90.73416","3.536533"
"7.12","88.85065","3.5564"
"7.16","87.17537","3.576767"
"7.2","85.41902","3.596867"
"7.24","83.11351","3.616667"
"7.28","79.99023","3.636467"
"7.32","77.15463","3.656667"
"7.36","74.5527","3.6769"
"7.4","71.92532","3.696767"
"7.44","68.95145","3.716533"
"7.48","65.48405","3.736567"
"7.52","62.07545","3.756833"
"7.56","58.3307","3.776767"
"7.6","53.61001","3.7966"
"7.64","47.82279","3.8164"
"7.68","42.46076","3.836833"
"7.72","23.86014","3.856833"
"7.76","4.216035","3.8766"
"7.8","4.172325","3.896433"
"7.84","4.180273","3.916733"
"7.88","4.194578","3.9369"
"7.92","4.210472","3.9565"
"7.96","4.229546","3.976467"
"8","4.258156","3.996833"
"8.04","4.239082","4.0168"
"8.08","4.283587","4.0365"
"8.12","4.276434","4.0564"
"8.16","4.267693","4.0767"
"8.2","4.251798","4.096867"
"8.24","4.223188","4.116734"
"8.28","4.177888","4.136434"
"8.32","4.196167","4.156633"
"8.36","4.21842","4.176867"
"8.4","4.227161","4.1968"
"8.44","4.251798","4.2165"
"8.48","4.277229","4.236633"
"8.52","4.278819","4.2569"
"8.56","4.287561","4.2766"
"8.6","4.283587","4.296566"
"8.64","4.263719","4.3165"
"8.68","4.277229","4.336867"
"8.72","4.232725","4.356867"
"8.76","4.234314","4.3766"
"8.8","4.196962","4.3964"
"8.84","4.20014","4.416667"
"8.88","4.239082","4.436934"
"8.92","4.258951","4.4564"
"8.96","4.276434","4.476433"
"9","4.280408","4.4967"
"9.04","4.301866","4.516867"
"9.08","4.285971","4.536567"
"9.12","4.301071","4.5565"
"9.16","4.267693","4.576766"
"9.2","4.274845","4.596867"
"9.24","4.262924","4.616734"
"9.28","4.251798","4.636467"
"9.32","4.220804","4.656667"
"9.36","4.227161","4.676867"
"9.4","4.252593","4.696733"
"9.44","4.26054","4.716434"
"9.48","4.27405","4.7366"
"9.52","4.285971","4.756933"
"9.56","4.289945","4.776733"
"9.6","4.292329","4.796566"
"9.64","4.309813","4.816534"
"9.68","4.289945","4.8368"
"9.72","4.26054","4.8569"
"9.76","4.239082","4.8766"
"9.8","4.23034","4.896467"
"9.84","4.232725","4.9166"
"9.88","4.214446","4.9369"
"9.92","4.223188","4.9565"
"9.96","4.254182","4.976533"
"10","4.250208","4.996634"
"10.04","4.281203","5.016833"
"10.08","4.276434","5.036467"
"10.12","4.283587","5.0565"
"10.16","4.292329","5.0767"
"10.2","4.294713","5.096833"
"10.24","4.27405","5.1167"
"10.28","4.249414","5.136467"
"10.32","4.243056","5.156667"
"10.36","4.23193","5.176933"
"10.4","4.225572","5.196733"
"10.44","4.238287","5.2165"
"10.48","4.240672","5.236633"
"10.52","4.265308","5.256933"
"10.56","4.267693","5.276667"
"10.6","4.296303","5.2952"
"10.61","4.292329","5.296267"

File: PLA-IPA-3.csv
"1 _ 1",,
"Time","Force","Stroke"
"sec","N","mm"
"0","0.7478396","0.0001"
"0.05","1.320839","0.02106667"
"0.1","11.03401","0.04633334"
"0.15","22.39307","0.0714"
"0.2","33.5598","0.0968"
"0.25","43.89048","0.1215333"
"0.3","51.69471","0.1464"
"0.35","54.90065","0.1716"
"0.4","56.21592","0.1968667"
"0.45","61.17503","0.2215333"
"0.5","67.55352","0.2466"
"0.55","71.47868","0.2718333"
"0.6","70.56078","0.2964667"
"0.65","70.89059","0.3214667"
"0.7","71.23152","0.3468"
"0.75","70.90887","0.3717"
"0.8","70.61005","0.3964"
"0.85","70.8588","0.4215667"
"0.9","71.31815","0.4467667"
"0.95","72.22414","0.4716"
"1","74.15374","0.4966334"
"1.05","75.87989","0.5219"
"1.1","83.11351","0.5463667"
"1.15","93.1708","0.5714334"
"1.2","99.71777","0.5968667"
"1.25","104.7611","0.6216"
"1.3","111.7055","0.6463667"
"1.35","121.754","0.6716"
"1.4","132.4828","0.6968"
"1.45","142.4559","0.7216"
"1.5","153.1005","0.7465667"
"1.55","163.8492","0.7718"
"1.6","174.8013","0.7964333"
"1.65","185.527","0.8215333"
"1.7","195.9554","0.8468667"
"1.75","205.903","0.8716"
"1.8","215.6385","0.8963667"
"1.85","223.9617","0.9216"
"1.9","229.2045","0.9468334"
"1.95","237.027","0.9715667"
"2","244.3496","0.9965333"
"2.05","251.6071","1.021867"
"2.1","258.7525","1.046533"
"2.15","265.5252","1.071467"
"2.2","272.2891","1.0969"
"2.25","278.5738","1.121667"
"2.3","284.3666","1.146533"
"2.35","290.1872","1.1716"
"2.4","296.1691","1.196733"
"2.45","302.1272","1.221567"
"2.5","307.6251","1.246533"
"2.55","312.86","1.271867"
"2.6","317.7556","1.2963"
"2.65","322.1425","1.321433"
"2.7","326.5031","1.346867"
"2.75","331.5576","1.371667"
"2.8","336.1909","1.3964"
"2.85","340.538","1.421567"
"2.9","344.6547","1.446767"
"2.95","348.2549","1.471667"
"3","351.3257","1.496567"
"3.05","354.2725","1.5219"
"3.1","356.8101","1.5464"
"3.15","358.5196","1.5714"
"3.2","360.5398","1.5969"
"3.25","362.4519","1.621567"
"3.3","363.7425","1.6464"
"3.35","365.4551","1.671567"
"3.4","366.9937","1.696833"
"3.45","367.9784","1.721533"
"3.5","368.8979","1.746567"
"3.55","370.1234","1.7719"
"3.6","370.8744","1.796433"
"3.65","371.6262","1.821433"
"3.7","372.471","1.846733"
"3.75","373.2006","1.8716"
"3.8","373.9222","1.896467"
"3.85","374.6128","1.921633"
"3.9","375.0571","1.9467"
"3.95","375.3964","1.9716"
"4","375.7326","1.9966"
"4.05","375.9503","2.021933"
"4.1","376.1546","2.046433"
"4.15","376.1299","2.0714"
"4.2","376.0489","2.0969"
"4.25","376.0672","2.1217"
"4.3","375.6658","2.146433"
"4.35","375.0841","2.1716"
"4.4","374.6629","2.1968"
"4.45","374.1701","2.221567"
"4.5","373.4636","2.246533"
"4.55","372.9478","2.271867"
"4.6","372.5251","2.2964"
"4.65","371.5698","2.3215"
"4.7","370.6877","2.346833"
"4.75","369.8699","2.371633"
"4.8","368.7207","2.396367"
"4.85","367.6462","2.421567"
"4.9","366.7863","2.4468"
"4.95","365.7023","2.4715"
"5","364.5476","2.496567"
"5.05","363.5987","2.5219"
"5.1","362.4384","2.546433"
"5.15","360.8799","2.5715"
"5.2","359.3779","2.5968"
"5.25","357.7995","2.621667"
"5.3","355.974","2.646367"
"5.35","354.0921","2.671633"
"5.4","352.1037","2.6968"
"5.45","349.714","2.721467"
"5.5","347.0492","2.746567"
"5.55","344.2534","2.7719"
"5.6","341.1063","2.796433"
"5.65","337.472","2.821467"
"5.7","333.5992","2.846767"
"5.75","329.3244","2.8716"
"5.8","324.1746","2.8964"
"5.85","318.114","2.921633"
"5.9","310.6173","2.946833"
"5.95","301.8562","2.9716"
"6","293.5942","2.996667"
"6.05","285.4737","3.0219"
"6.1","277.013","3.0464"
"6.15","268.1939","3.071433"
"6.2","259.7117","3.0968"
"6.25","250.9205","3.1216"
"6.3","242.0815","3.1464"
"6.35","233.082","3.171667"
"6.4","222.7704","3.196867"
"6.45","212.3396","3.2215"
"6.5","202.0176","3.2466"
"6.55","192.8099","3.271867"
"6.6","183.7786","3.296367"
"6.65","175.5373","3.321467"
"6.7","167.7783","3.346733"
"6.75","158.9235","3.371633"
"6.8","146.4287","3.396367"
"6.85","136.4207","3.421667"
"6.9","128.7508","3.4468"
"6.95","121.6038","3.471567"
"7","113.4396","3.496667"
"7.05","104.8541","3.5219"
"7.1","100.9091","3.5464"
"7.15","98.66873","3.571433"
"7.2","97.49731","3.596833"
"7.25","96.54363","3.621667"
"7.3","95.66784","3.646367"
"7.35","94.92953","3.671567"
"7.4","94.14752","3.696733"
"7.45","93.22008","3.721467"
"7.5","92.28786","3.746667"
"7.55","91.06874","3.771867"
"7.6","89.23372","3.796467"
"7.65","87.11099","3.8215"
"7.7","85.08205","3.846833"
"7.75","82.2711","3.8716"
"7.8","78.47945","3.8963"
"7.85","76.20891","3.9216"
"7.9","74.45256","3.946867"
"7.95","72.52216","3.971533"
"8","71.22755","3.9966"
"8.05","70.40024","4.021934"
"8.1","69.67307","4.046467"
"8.15","69.22722","4.071467"
"8.2","68.80602","4.0968"
"8.25","68.85052","4.1216"
"8.3","68.79488","4.146433"
"8.35","68.72177","4.1716"
"8.4","68.67011","4.1968"
"8.45","68.4921","4.221467"
"8.5","66.57442","4.246634"
"8.55","57.16562","4.271833"
"8.6","54.47785","4.2964"
"8.65","53.29847","4.321434"
"8.7","52.64918","4.346833"
"8.75","52.11671","4.371667"
"8.8","51.57232","4.396433"
"8.85","50.7776","4.421633"
"8.9","50.26023","4.4468"
"8.95","49.83425","4.471567"
"9","49.43768","4.496667"
"9.05","48.88455","4.521833"
"9.1","47.9118","4.5464"
"9.15","47.09244","4.5714"
"9.2","46.43679","4.596833"
"9.25","45.71199","4.621634"
"9.3","44.75991","4.646367"
"9.35","43.89048","4.671633"
"9.4","42.8319","4.6969"
"9.45","41.78365","4.721467"
"9.5","40.73302","4.746533"
"9.55","39.30251","4.771833"
"9.6","37.76471","4.796433"
"9.65","35.71272","4.821533"
"9.7","34.35056","4.846767"
"9.75","33.97703","4.871634"
"9.8","33.7863","4.896367"
"9.85","33.6647","4.921667"
"9.9","33.56616","4.946767"
"9.95","33.31423","4.971567"
"10","32.78812","4.996634"
"10.05","32.66335","5.0219"
"10.1","32.57116","5.046433"
"10.15","32.52506","5.0715"
"10.2","32.45115","5.0969"
"10.25","32.37804","5.121634"
"10.3","32.37804","5.1463"
"10.35","32.34386","5.1715"
"10.4","32.35579","5.196767"
"10.45","32.33989","5.221567"
"10.5","32.34227","5.246634"
"10.55","32.35181","5.271833"
"10.6","32.35738","5.296367"
"10.65","32.35499","5.321467"
"10.7","32.35181","5.346867"
"10.75","32.35499","5.371634"
"10.8","32.36612","5.396267"
"10.85","32.35102","5.421633"
"10.9","32.36453","5.4468"
"10.95","32.35102","5.471533"
"11","32.35181","5.496634"
"11.05","32.34943","5.521867"
"11.1","32.3534","5.546467"
"11.15","32.32638","5.571467"
"11.2","32.34227","5.596867"
"11.25","32.37088","5.6216"
"11.3","32.36055","5.6464"
"11.35","32.36612","5.671633"
"11.4","32.35181","5.696834"
"11.45","32.35817","5.721567"
"11.5","32.36612","5.7466"
"11.55","32.34625","5.771833"
"11.6","32.324","5.796333"
"11.65","32.34704","5.821434"
"11.7","32.33353","5.8469"
"11.75","32.34227","5.8717"
"11.8","32.34069","5.896333"
"11.85","32.36453","5.9216"
"11.9","32.35817","5.9468"
"11.95","32.3534","5.971567"
"12","32.35181","5.996567"
"12.05","32.36294","6.0218"
"12.1","32.3383","6.0464"
"12.13","32.34466","6.0575"