Folder: Modified-Jubilee/degradation_testing/tensile_testing/PLA/PLA_Control (part 2)

File: P-run-4.csv
"1 _ 1",,
"Time","Force","Stroke"
"sec","N","mm"
"0","0.1279513","0.0001"
"0.03","0.1271566","0.01076667"
"0.06","2.432664","0.0262"
"0.09","11.30978","0.0416"
"0.12","22.08471","0.05633333"
"0.15","32.2175","0.07133333"
"0.18","41.23926","0.0866"
"0.21","47.76955","0.1018"
"0.24","50.17916","0.1168333"
"0.27","50.17678","0.1315667"
"0.3","51.17814","0.1465333"
"0.33","51.9832","0.1615667"
"0.36","52.06108","0.1766"
"0.39","52.93925","0.1918333"
"0.42","55.6771","0.2068"
"0.45","55.68107","0.2215"
"0.48","55.70173","0.2363333"
"0.51","55.70094","0.2515333"
"0.54","55.69935","0.2667667"
"0.57","55.67233","0.2819667"
"0.6","55.72875","0.2966667"
"0.63","55.69061","0.3115667"
"0.66","55.66359","0.3263333"
"0.69","55.65882","0.3417"
"0.72","55.67233","0.3568"
"0.75","55.67868","0.3717667"
"0.78","55.71206","0.3863667"
"0.81","55.88611","0.4014"
"0.84","56.00214","0.4165667"
"0.87","56.42176","0.4316333"
"0.9","61.20126","0.4468333"
"0.93","70.48845","0.4617333"
"0.96","78.2299","0.4766"
"0.99","83.1453","0.4914"
"1.02","86.09056","0.5066667"
"1.05","89.18842","0.5218"
"1.08","94.29932","0.5368"
"1.11","101.9883","0.5514"
"1.14","111.4718","0.5663667"
"1.17","122.0751","0.5815"
"1.2","132.3922","0.5966667"
"1.23","142.1229","0.6117667"
"1.26","151.4594","0.6266"
"1.29","161.0955","0.6414"
"1.32","171.0041","0.6563666"
"1.35","180.8047","0.6716334"
"1.38","190.8946","0.6868667"
"1.41","200.8867","0.7019333"
"1.44","210.5514","0.7166"
"1.47","219.8307","0.7315667"
"1.5","229.1584","0.7463334"
"1.53","238.5855","0.7616333"
"1.56","248.1747","0.7769"
"1.59","257.7114","0.7917667"
"1.62","266.9954","0.8064333"
"1.65","276.0077","0.8213"
"1.68","285.0501","0.8366667"
"1.71","294.2848","0.8519334"
"1.74","303.6062","0.8667334"
"1.77","312.6295","0.8816"
"1.8","321.4701","0.8965334"
"1.83","330.3115","0.9114667"
"1.86","339.1234","0.9266"
"1.89","347.7979","0.9418333"
"1.92","356.1671","0.9567333"
"1.95","364.3242","0.9714333"
"1.98","372.1833","0.9862"
"2.01","380.2268","1.0015"
"2.04","388.511","1.016733"
"2.07","396.8406","1.031867"
"2.1","405.0151","1.046667"
"2.13","413.0125","1.061533"
"2.16","420.7031","1.076433"
"2.19","428.1902","1.091733"
"2.22","435.5709","1.1069"
"2.25","442.8768","1.121667"
"2.28","449.6145","1.1364"
"2.31","455.509","1.1513"
"2.34","460.6032","1.166567"
"2.37","465.3684","1.181667"
"2.4","469.8841","1.1968"
"2.43","473.8649","1.211633"
"2.46","477.5747","1.226633"
"2.49","481.0302","1.2413"
"2.52","484.5365","1.2566"
"2.55","488.0619","1.271767"
"2.58","491.5396","1.286833"
"2.61","494.8592","1.3015"
"2.64","497.9356","1.3164"
"2.67","500.8825","1.331567"
"2.7","503.5909","1.346733"
"2.73","506.2803","1.361767"
"2.76","508.8401","1.3767"
"2.79","511.1734","1.391433"
"2.82","513.2667","1.406533"
"2.85","515.3521","1.421633"
"2.88","517.4184","1.4368"
"2.91","519.4354","1.451933"
"2.94","521.3086","1.4666"
"2.97","522.8599","1.481467"
"3","524.3198","1.496367"
"3.03","525.794","1.5115"
"3.06","527.4709","1.5268"
"3.09","528.9523","1.5417"
"3.12","530.1873","1.556467"
"3.15","531.0774","1.5714"
"3.18","531.8491","1.586733"
"3.21","532.6176","1.6019"
"3.24","533.4401","1.616767"
"3.27","534.0711","1.631533"
"3.3","534.4312","1.646433"
"3.33","534.6282","1.6614"
"3.36","534.7117","1.676633"
"3.39","534.6441","1.691767"
"3.42","533.9217","1.706733"
"3.45","532.5532","1.721533"
"3.48","530.5465","1.7364"
"3.51","528.2553","1.7515"
"3.54","525.6438","1.766767"
"3.57","522.7685","1.781967"
"3.6","519.4307","1.7967"
"3.63","515.6398","1.8115"
"3.66","511.4595","1.826467"
"3.69","507.2101","1.8417"
"3.72","502.9321","1.856767"
"3.75","498.6087","1.8717"
"3.78","494.0414","1.8864"
"3.81","489.277","1.901433"
"3.84","484.5365","1.916533"
"3.87","480.0375","1.931733"
"3.9","475.746","1.946867"
"3.93","471.3972","1.961833"
"3.96","466.9404","1.976667"
"3.99","462.3119","1.991367"
"4.02","457.7072","2.0066"
"4.05","453.3887","2.021867"
"4.08","449.2911","2.036833"
"4.11","445.0266","2.051433"
"4.14","440.1978","2.0664"
"4.17","435.2299","2.0815"
"4.2","430.6158","2.096767"
"4.23","426.4641","2.111733"
"4.26","422.6541","2.126667"
"4.29","419.0516","2.141467"
"4.32","415.4825","2.156467"
"4.35","412.2075","2.171667"
"4.38","409.1438","2.1868"
"4.41","406.4417","2.201933"
"4.44","404.0098","2.216633"
"4.47","401.6964","2.2315"
"4.5","399.6563","2.246367"
"4.53","397.7537","2.261533"
"4.56","395.4402","2.276833"
"4.59","392.944","2.2917"
"4.62","390.1831","2.306433"
"4.65","387.0885","2.321433"
"4.68","384.1599","2.336633"
"4.71","381.4419","2.351867"
"4.74","378.7295","2.3668"
"4.77","375.8486","2.381533"
"4.8","372.5473","2.3965"
"4.83","368.948","2.411533"
"4.86","365.4313","2.426667"
"4.89","361.9019","2.4418"
"4.92","358.3105","2.456767"
"4.95","354.9083","2.471533"
"4.98","351.7493","2.486267"
"5.01","348.9359","2.501533"
"5.04","345.9922","2.516767"
"5.07","342.288","2.5319"
"5.1","337.5506","2.5467"
"5.13","332.0861","2.561567"
"5.16","326.5436","2.5765"
"5.19","320.7803","2.591767"
"5.22","313.8924","2.606767"
"5.25","303.9066","2.621733"
"5.28","290.6728","2.636433"
"5.31","276.4495","2.651433"
"5.34","261.1915","2.666567"
"5.37","246.1577","2.681633"
"5.4","231.9686","2.696767"
"5.43","217.7429","2.711633"
"5.46","204.7928","2.726633"
"5.49","194.6759","2.741333"
"5.52","186.4362","2.756633"
"5.55","179.4346","2.771867"
"5.58","172.7573","2.7869"
"5.61","166.6482","2.801467"
"5.64","162.1874","2.816367"
"5.67","158.1295","2.831467"
"5.7","153.7991","2.8468"
"5.73","149.7126","2.861733"
"5.76","145.4298","2.876667"
"5.79","140.4643","2.891467"
"5.82","134.7526","2.906467"
"5.85","127.9354","2.921567"
"5.88","122.18","2.9368"
"5.91","117.6294","2.951933"
"5.94","114.6889","2.966633"
"5.97","112.2983","2.981367"
"6","109.4516","2.996533"
"6.03","106.8362","3.011567"
"6.06","104.4663","3.026767"
"6.09","102.7544","3.041733"
"6.12","101.0958","3.056467"
"6.15","99.32121","3.0714"
"6.18","97.26604","3.0867"
"6.21","94.95417","3.1018"
"6.24","92.06693","3.1168"
"6.27","88.90152","3.131633"
"6.3","83.55776","3.146467"
"6.33","76.95914","3.161467"
"6.36","71.04238","3.1767"
"6.39","65.55716","3.191833"
"6.42","59.87326","3.206767"
"6.45","54.6964","3.221533"
"6.48","38.4887","3.236333"
"6.51","19.83166","3.251567"
"6.54","19.37389","3.266767"
"6.57","19.24038","3.281967"
"6.6","19.17521","3.296667"
"6.63","19.24197","3.3115"
"6.66","19.29601","3.3264"
"6.69","19.30475","3.341633"
"6.72","19.28488","3.3567"
"6.75","19.28886","3.371733"
"6.78","19.33177","3.386433"
"6.81","19.32939","3.401433"
"6.84","19.30952","3.4165"
"6.87","19.3421","3.431733"
"6.9","19.32701","3.446867"
"6.93","19.30475","3.461833"
"6.96","19.2976","3.4765"
"6.99","19.30475","3.491367"
"7.02","19.29363","3.506633"
"7.05","19.24276","3.5218"
"7.08","19.1927","3.536767"
"7.11","19.22051","3.551433"
"7.14","19.29363","3.566333"
"7.17","19.29363","3.5815"
"7.2","19.30078","3.596767"
"7.23","19.29124","3.611767"
"7.26","19.31985","3.626667"
"7.29","19.33575","3.6415"
"7.32","19.3278","3.6564"
"7.35","19.3421","3.6717"
"7.38","19.32462","3.686867"
"7.41","19.33177","3.701867"
"7.44","19.32462","3.7166"
"7.47","19.29998","3.7315"
"7.5","19.29204","3.746367"
"7.53","19.27376","3.761567"
"7.56","19.24912","3.7769"
"7.59","19.26422","3.7917"
"7.62","19.28488","3.8065"
"7.65","19.28409","3.821367"
"7.68","19.29601","3.8367"
"7.71","19.30555","3.851867"
"7.74","19.30714","3.866667"
"7.77","19.32541","3.881567"
"7.8","19.3429","3.896533"
"7.83","19.33098","3.911467"
"7.86","19.30078","3.9266"
"7.89","19.30316","3.941767"
"7.92","19.31111","3.956767"
"7.95","19.3119","3.971467"
"7.98","19.29204","3.983333"
"7.99","19.28488","3.984"

File: P-run-5.csv
"1 _ 1",,
"Time","Force","Stroke"
"sec","N","mm"
"0","-3.889402","0.0001"
"0.05","-2.249082","0.0215"
"0.1","14.5491","0.04693333"
"0.15","33.67742","0.07143334"
"0.2","48.78362","0.09646667"
"0.25","50.62024","0.1218333"
"0.3","51.83379","0.1466667"
"0.35","54.44606","0.1714667"
"0.4","55.19946","0.1967333"
"0.45","54.62726","0.2218"
"0.5","54.74965","0.2465333"
"0.55","54.82038","0.2717333"
"0.6","54.75839","0.2970333"
"0.65","54.82356","0.3215333"
"0.7","54.91893","0.3465667"
"0.75","54.92131","0.3718"
"0.8","55.00873","0.3967"
"0.85","55.21854","0.4214333"
"0.9","63.28583","0.4467333"
"0.95","74.25229","0.4718667"
"1","82.46501","0.4964333"
"1.05","91.92864","0.5216"
"1.1","106.8481","0.5468667"
"1.15","124.7938","0.5714334"
"1.2","142.2461","0.5964667"
"1.25","159.9042","0.6218667"
"1.3","177.8976","0.6465"
"1.35","195.597","0.6714333"
"1.4","212.9722","0.6967"
"1.45","230.5094","0.7217667"
"1.5","247.492","0.7465"
"1.55","264.26","0.7716"
"1.6","281.4237","0.797"
"1.65","298.442","0.8215"
"1.7","314.8794","0.8465667"
"1.75","331.5179","0.8718"
"1.8","347.933","0.8967"
"1.85","363.6853","0.9215333"
"1.9","378.9457","0.9466333"
"1.95","393.9446","0.9718333"
"2","408.299","0.9964333"
"2.05","422.0351","1.021667"
"2.1","435.7457","1.046933"
"2.15","448.7896","1.0714"
"2.2","460.2885","1.096567"
"2.25","470.9466","1.1219"
"2.3","480.4611","1.1466"
"2.35","488.2646","1.1714"
"2.4","495.1604","1.196567"
"2.45","501.6788","1.221833"
"2.5","507.3039","1.246533"
"2.55","511.9713","1.271633"
"2.6","516.1746","1.297033"
"2.65","519.5133","1.321567"
"2.7","521.7449","1.346533"
"2.75","523.738","1.3719"
"2.8","525.5715","1.396633"
"2.85","526.7477","1.4215"
"2.9","527.8452","1.446733"
"2.95","528.8728","1.471833"
"3","529.205","1.4965"
"3.05","528.8863","1.521667"
"3.1","528.0701","1.546967"
"3.15","525.8647","1.571533"
"3.2","522.329","1.5965"
"3.25","518.0558","1.621867"
"3.3","513.3199","1.646633"
"3.35","508.2806","1.671433"
"3.4","503.7951","1.696733"
"3.45","499.9995","1.7218"
"3.5","496.0402","1.7466"
"3.55","492.3574","1.771667"
"3.6","489.3947","1.797"
"3.65","486.5702","1.821467"
"3.7","483.5161","1.8465"
"3.75","481.062","1.871867"
"3.8","478.8192","1.8966"
"3.85","476.3468","1.9215"
"3.9","474.0858","1.9467"
"3.95","471.9384","1.971867"
"4","469.6067","1.996533"
"4.05","467.2345","2.0216"
"4.1","465.3867","2.046967"
"4.15","463.6161","2.071467"
"4.2","461.39","2.0965"
"4.25","459.5216","2.121933"
"4.3","457.7963","2.1466"
"4.35","455.6195","2.1715"
"4.4","453.62","2.196733"
"4.45","451.8859","2.221833"
"4.5","449.8061","2.2465"
"4.55","447.7747","2.271633"
"4.6","446.2814","2.297033"
"4.65","444.6316","2.321467"
"4.7","442.3714","2.346533"
"4.75","440.2304","2.371833"
"4.8","438.1641","2.396567"
"4.85","435.8101","2.4215"
"4.9","433.4712","2.446633"
"4.95","431.0409","2.471833"
"5","428.6448","2.496533"
"5.05","426.174","2.5217"
"5.1","424.1483","2.547"
"5.15","421.8674","2.571467"
"5.2","419.0938","2.5966"
"5.25","416.7437","2.6219"
"5.3","414.59","2.646633"
"5.35","412.035","2.6715"
"5.4","409.5793","2.696733"
"5.45","407.3143","2.721867"
"5.5","404.9977","2.746567"
"5.55","402.7613","2.7717"
"5.6","400.8929","2.796967"
"5.65","398.7527","2.8215"
"5.7","396.0951","2.846533"
"5.75","393.5901","2.871767"
"5.8","391.4293","2.896567"
"5.85","389.08","2.9215"
"5.9","386.6339","2.946733"
"5.95","384.0796","2.9718"
"6","380.9913","2.9964"
"6.05","377.6773","3.021667"
"6.1","374.7098","3.047"
"6.15","370.8831","3.071433"
"6.2","366.5741","3.096567"
"6.25","362.25","3.121833"
"6.3","357.1646","3.1466"
"6.35","351.3519","3.171533"
"6.4","346.7306","3.1968"
"6.45","342.6226","3.2218"
"6.5","337.6476","3.2466"
"6.55","332.7195","3.271633"
"6.6","328.873","3.297067"
"6.65","324.7897","3.321533"
"6.7","318.5765","3.346533"
"6.75","312.1917","3.3719"
"6.8","306.3186","3.396667"
"6.85","299.6659","3.4215"
"6.9","294.2197","3.4467"
"6.95","289.3686","3.471833"
"7","285.4276","3.496467"
"7.05","282.3416","3.521567"
"7.1","279.7206","3.546833"
"7.15","274.3387","3.571433"
"7.2","263.7839","3.596567"
"7.25","255.0681","3.6218"
"7.3","246.3174","3.646667"
"7.35","239.0202","3.671467"
"7.4","234.1898","3.696767"
"7.45","231.1627","3.721767"
"7.5","228.4733","3.746533"
"7.55","225.9898","3.771733"
"7.6","224.5561","3.797033"
"7.65","223.2552","3.821533"
"7.7","221.2087","3.846567"
"7.75","219.938","3.871833"
"7.8","218.8611","3.896633"
"7.85","217.2756","3.921433"
"7.9","214.1921","3.946733"
"7.95","203.8701","3.971767"
"8","196.9274","3.9964"
"8.05","190.4202","4.021667"
"8.1","185.5493","4.046933"
"8.15","182.8806","4.0714"
"8.2","180.7888","4.096533"
"8.25","178.8656","4.1218"
"8.3","177.2277","4.146567"
"8.35","176.3153","4.171433"
"8.4","175.5476","4.1967"
"8.45","172.6103","4.221767"
"8.5","168.2361","4.246533"
"8.55","163.3016","4.271733"
"8.6","157.4103","4.296967"
"8.65","152.0888","4.321533"
"8.7","148.6778","4.346567"
"8.75","146.0918","4.371767"
"8.8","144.2146","4.396667"
"8.85","142.622","4.4215"
"8.9","139.8603","4.4468"
"8.95","136.6655","4.4718"
"9","133.4111","4.496467"
"9.05","131.8121","4.521633"
"9.1","130.8139","4.546967"
"9.15","129.4096","4.571467"
"9.2","128.2994","4.5965"
"9.25","126.4707","4.6218"
"9.3","117.7009","4.646633"
"9.35","107.5753","4.671467"
"9.4","103.5126","4.696733"
"9.45","101.2055","4.721734"
"9.5","98.9151","4.7465"
"9.55","97.17862","4.7717"
"9.6","95.41353","4.796967"
"9.65","92.70509","4.8215"
"9.7","89.18524","4.846567"
"9.75","85.4524","4.871833"
"9.8","83.05391","4.896567"
"9.85","81.0647","4.921467"
"9.9","79.94652","4.946767"
"9.95","79.1796","4.971833"
"10","78.22037","4.996433"
"10.05","77.03622","5.0217"
"10.1","76.36308","5.047"
"10.15","75.54134","5.071533"
"10.2","74.22606","5.096533"
"10.25","72.87502","5.121867"
"10.3","71.50809","5.146533"
"10.35","68.41818","5.171534"
"10.4","64.50574","5.196667"
"10.45","61.16549","5.221767"
"10.5","56.66018","5.2465"
"10.55","53.7308","5.2717"
"10.6","21.85742","5.297"
"10.65","20.06531","5.3215"
"10.7","20.12332","5.346533"
"10.75","20.13842","5.3718"
"10.8","20.40386","5.3966"
"10.85","20.55089","5.421433"
"10.9","20.68917","5.446733"
"10.95","20.83937","5.471833"
"11","20.81156","5.496467"
"11.05","19.44304","5.521733"
"11.1","18.42419","5.546933"
"11.15","18.37492","5.571467"
"11.2","18.35028","5.5965"
"11.25","18.34154","5.621867"
"11.3","18.36697","5.646634"
"11.35","18.41466","5.671467"
"11.4","18.42896","5.696733"
"11.45","18.43055","5.7219"
"11.5","18.42658","5.746567"
"11.55","18.42896","5.7716"
"11.6","18.42817","5.7969"
"11.65","18.39081","5.821467"
"11.7","18.37572","5.846567"
"11.75","18.37015","5.871833"
"11.8","18.40035","5.896567"
"11.85","18.41068","5.9214"
"11.9","18.44247","5.946733"
"11.95","18.42817","5.9718"
"12","18.40433","5.9964"
"12.05","18.42022","6.021667"
"12.1","18.41784","6.046967"
"12.15","18.38366","6.071434"
"12.2","18.36459","6.096567"
"12.25","18.3932","6.121833"
"12.3","18.3924","6.146634"
"12.35","18.43929","6.171467"
"12.4","18.44883","6.196733"
"12.45","18.44168","6.2218"
"12.5","18.4377","6.246567"
"12.55","18.42658","6.271634"
"12.6","18.41068","6.297033"
"12.65","18.40035","6.321467"
"12.7","18.3924","6.3465"
"12.75","18.38207","6.371933"
"12.8","18.38366","6.396567"
"12.85","18.39956","6.4214"
"12.9","18.41545","6.4467"
"12.95","18.42658","6.4718"
"13","18.43055","6.496467"
"13.05","18.42419","6.5149"