Folder: Modified-Jubilee/degradation_testing/tensile_testing/Resin/Resin_Control (part 2)

File: R-run-4.csv
"1 _ 1",,
"Time","Force","Stroke"
"sec","N","mm"
"0","0.1549721","0.0001"
"0.02","0.1613299","0.006"
"0.04","0.5094211","0.01576667"
"0.06","3.364881","0.02593333"
"0.08","10.66208","0.03626667"
"0.1","19.80225","0.04656667"
"0.12","28.99806","0.0567"
"0.14","37.72338","0.0667"
"0.16","45.59119","0.07666667"
"0.18","51.28304","0.0865"
"0.2","53.08151","0.09653334"
"0.22","53.53928","0.1063333"
"0.24","53.71094","0.1164667"
"0.26","53.75306","0.1266667"
"0.28","53.75068","0.1368"
"0.3","53.74591","0.1468667"
"0.32","53.74908","0.1569"
"0.34","53.7467","0.1667333"
"0.36","53.73557","0.1765333"
"0.38","53.73557","0.1862667"
"0.4","53.67041","0.1964333"
"0.42","53.63703","0.2066"
"0.44","53.61001","0.2166"
"0.46","53.59014","0.2268"
"0.48","53.57186","0.2369333"
"0.5","53.57504","0.2467667"
"0.52","53.56868","0.2564333"
"0.54","53.55914","0.2665667"
"0.56","53.57742","0.2764333"
"0.58","53.60842","0.2866"
"0.6","53.64577","0.2966667"
"0.62","53.67756","0.3069"
"0.64","53.71968","0.3168"
"0.66","53.78644","0.3267"
"0.68","53.82697","0.3366"
"0.7","53.86193","0.3465667"
"0.72","53.87624","0.3564667"
"0.74","53.86512","0.3665667"
"0.76","53.84843","0.3767333"
"0.78","53.86432","0.3867667"
"0.8","53.84843","0.3968667"
"0.82","53.88896","0.4068667"
"0.84","53.88737","0.4167"
"0.86","53.90882","0.4265667"
"0.88","54.02327","0.4365"
"0.9","54.52712","0.4464"
"0.92","56.73568","0.4565667"
"0.94","62.09294","0.4666333"
"0.96","68.70508","0.4769"
"0.98","74.19189","0.487"
"1","78.05506","0.4967333"
"1.02","82.34898","0.5064334"
"1.04","90.6674","0.5164"
"1.06","99.18372","0.5263"
"1.08","106.7209","0.5364"
"1.1","115.3111","0.5466334"
"1.12","124.5888","0.5568333"
"1.14","132.6211","0.5667334"
"1.16","141.4124","0.5766667"
"1.18","150.9444","0.5864667"
"1.2","159.0013","0.5964667"
"1.22","167.8395","0.6063333"
"1.24","176.4973","0.6164667"
"1.26","184.5463","0.6266"
"1.28","193.6237","0.6367"
"1.3","201.8952","0.6467667"
"1.32","210.2367","0.6568"
"1.34","218.8007","0.6666667"
"1.36","226.694","0.6765"
"1.38","235.041","0.6864333"
"1.4","242.9358","0.6964667"
"1.42","250.9149","0.7065667"
"1.44","259.0434","0.7166"
"1.46","266.7491","0.7268"
"1.48","274.7146","0.7369334"
"1.5","282.4044","0.7467"
"1.52","290.0132","0.7564334"
"1.54","297.482","0.7665"
"1.56","304.6044","0.7764"
"1.58","311.9373","0.7865334"
"1.6","319.1042","0.7967333"
"1.62","326.3648","0.8069"
"1.64","333.631","0.8168333"
"1.66","340.6715","0.8266667"
"1.68","347.7224","0.8364667"
"1.7","354.5197","0.8464333"
"1.72","361.2042","0.8563"
"1.74","367.8449","0.8664333"
"1.76","374.4841","0.8767334"
"1.78","381.194","0.8868334"
"1.8","387.8204","0.8968334"
"1.82","394.2927","0.9069"
"1.84","400.5059","0.9167"
"1.86","406.5021","0.9265333"
"1.88","412.1693","0.9365333"
"1.9","417.5536","0.9463333"
"1.92","422.8497","0.9566"
"1.94","428.2125","0.9666333"
"1.96","433.9083","0.9769"
"1.98","439.5755","0.987"
"2","445.0846","0.9967"
"2.02","450.3091","1.006467"
"2.04","454.971","1.016467"
"2.06","459.1807","1.026433"
"2.08","463.2465","1.036567"
"2.1","467.2019","1.046667"
"2.12","471.1278","1.056967"
"2.14","474.933","1.0667"
"2.16","478.5848","1.076633"
"2.18","481.867","1.0865"
"2.2","484.7447","1.096533"
"2.22","487.3443","1.106433"
"2.24","489.7888","1.116533"
"2.26","492.1412","1.126733"
"2.28","494.3792","1.1367"
"2.3","496.4797","1.1468"
"2.32","498.3608","1.156933"
"2.34","500.1601","1.1667"
"2.36","501.8973","1.176433"
"2.38","503.4558","1.1863"
"2.4","505.0834","1.196267"
"2.42","506.8159","1.206533"
"2.44","508.6168","1.2165"
"2.46","510.6425","1.226767"
"2.48","512.6985","1.236867"
"2.5","514.7847","1.2467"
"2.52","516.8629","1.256433"
"2.54","518.8227","1.266533"
"2.56","520.5146","1.2764"
"2.58","522.0668","1.2866"
"2.6","523.7333","1.2967"
"2.62","525.6216","1.306967"
"2.64","527.6044","1.316867"
"2.66","529.592","1.326733"
"2.68","531.4724","1.3365"
"2.7","533.2295","1.3465"
"2.72","534.9008","1.356367"
"2.74","536.6469","1.366467"
"2.76","538.4771","1.376733"
"2.78","540.4115","1.386767"
"2.8","542.4452","1.396867"
"2.82","544.4296","1.4068"
"2.84","546.2789","1.416667"
"2.86","547.905","1.426533"
"2.88","549.3911","1.436533"
"2.9","550.9854","1.446333"
"2.92","552.6844","1.456567"
"2.94","554.3494","1.466633"
"2.96","556.256","1.4768"
"2.98","558.2762","1.486933"
"3","560.2559","1.4967"
"3.02","562.2085","1.506467"
"3.04","563.9958","1.516567"
"3.06","565.7355","1.526467"
"3.08","567.5594","1.536633"
"3.1","569.3849","1.546767"
"3.12","571.324","1.557"
"3.14","573.3235","1.566733"
"3.16","575.3192","1.5767"
"3.18","577.2877","1.586533"
"3.2","579.2849","1.596533"
"3.22","581.2534","1.606467"
"3.24","583.2672","1.616567"
"3.26","585.3494","1.626667"
"3.28","587.4363","1.6367"
"3.3","589.5654","1.646767"
"3.32","591.6802","1.6569"
"3.34","593.8101","1.666733"
"3.36","595.932","1.676567"
"3.38","597.9315","1.686367"
"3.4","599.978","1.696267"
"3.42","602.0737","1.7065"
"3.44","604.2361","1.7165"
"3.46","606.6266","1.726767"
"3.48","609.0435","1.736833"
"3.5","611.426","1.7467"
"3.52","613.7387","1.756433"
"3.54","615.9321","1.766567"
"3.56","618.0747","1.776433"
"3.58","620.3556","1.7865"
"3.6","622.6841","1.7967"
"3.62","625.1844","1.806933"
"3.64","627.8721","1.816733"
"3.66","630.5766","1.826533"
"3.68","633.165","1.836433"
"3.7","635.7217","1.8465"
"3.72","638.3173","1.856367"
"3.74","640.9033","1.866467"
"3.76","643.4933","1.8767"
"3.78","646.1795","1.8867"
"3.8","648.9531","1.8968"
"3.82","651.6616","1.9068"
"3.84","654.3867","1.9167"
"3.86","657.0729","1.9266"
"3.88","659.6454","1.936467"
"3.9","662.2338","1.9464"
"3.92","664.858","1.956567"
"3.94","667.4703","1.966633"
"3.96","670.2089","1.976867"
"3.98","672.9308","1.987033"
"4","675.6369","1.996733"
"4.02","678.281","2.0064"
"4.04","680.7462","2.0165"
"4.06","683.2012","2.0264"
"4.08","685.819","2.0366"
"4.1","688.5473","2.046667"
"4.12","691.456","2.056967"
"4.14","694.4148","2.0667"
"4.16","697.2599","2.076633"
"4.18","699.8651","2.086533"
"4.2","702.4542","2.096567"
"4.22","705.0268","2.1064"
"4.24","707.5953","2.116467"
"4.26","710.1743","2.126667"
"4.28","712.8159","2.136767"
"4.3","715.5204","2.146833"
"4.32","718.2217","2.156967"
"4.34","720.8792","2.166867"
"4.36","723.4565","2.176667"
"4.38","725.8447","2.186367"
"4.4","728.1566","2.196333"
"4.42","730.4708","2.206533"
"4.44","732.8709","2.2166"
"4.46","735.4736","2.226833"
"4.48","738.0684","2.236967"
"4.5","740.6259","2.2467"
"4.52","743.1237","2.2564"
"4.54","745.4165","2.2665"
"4.56","747.6052","2.2764"
"4.58","749.9131","2.286567"
"4.6","752.2384","2.296767"
"4.62","754.683","2.306833"
"4.64","757.1403","2.3167"
"4.66","759.4967","2.326667"
"4.68","761.8205","2.3365"
"4.7","764.1522","2.346433"
"4.72","766.3695","2.356367"
"4.74","768.5192","2.366433"
"4.76","770.7015","2.376633"
"4.78","772.9181","2.3867"
"4.8","775.1512","2.396833"
"4.82","777.3161","2.406833"
"4.84","779.4571","2.4167"
"4.86","781.4868","2.426533"
"4.88","783.3647","2.436433"
"4.9","785.2745","2.446367"
"4.92","787.2319","2.4565"
"4.94","789.1719","2.466533"
"4.96","791.1921","2.476833"
"4.98","793.2401","2.4871"
"5","795.3096","2.4967"
"5.02","797.2654","2.5064"
"5.04","798.9407","2.516567"
"5.06","799.7521","2.5272"
"5.08","699.0512","2.537267"
"5.1","262.4067","2.546867"
"5.12","28.86931","2.556833"
"5.14","21.84232","2.5596"

File: R-run-5.csv
"1 _ 1",,
"Time","Force","Stroke"
"sec","N","mm"
"0","1.521111","0.0001"
"0.02","1.529853","0.006066667"
"0.04","1.875559","0.016"
"0.06","4.731019","0.02616667"
"0.08","11.99961","0.03613333"
"0.1","20.93474","0.0462"
"0.12","30.01213","0.05626667"
"0.14","39.06806","0.06646667"
"0.16","47.671","0.07656667"
"0.18","55.5102","0.0867"
"0.2","60.51064","0.09683333"
"0.22","61.57637","0.1066333"
"0.24","61.44285","0.1163667"
"0.26","61.12814","0.1264667"
"0.28","61.05185","0.1364333"
"0.3","61.19967","0.1465333"
"0.32","61.32205","0.1566"
"0.34","61.4508","0.1667667"
"0.36","61.60498","0.1768667"
"0.38","61.6765","0.1867333"
"0.4","61.72736","0.1966333"
"0.42","61.76949","0.2066"
"0.44","61.7965","0.2163333"
"0.46","61.80525","0.2264667"
"0.48","61.81002","0.2366"
"0.5","61.79889","0.2467333"
"0.52","61.78538","0.2568"
"0.54","61.76074","0.2668"
"0.56","61.70511","0.2766333"
"0.58","61.67571","0.2864333"
"0.6","61.66697","0.2964"
"0.62","61.67014","0.3065"
"0.64","61.65187","0.3166"
"0.66","61.6924","0.3266333"
"0.68","61.75836","0.3368"
"0.7","61.82512","0.3467667"
"0.72","61.86565","0.3566333"
"0.74","61.89902","0.3664"
"0.76","61.9189","0.3764667"
"0.78","61.93002","0.3864333"
"0.8","61.96658","0.3966"
"0.82","61.99757","0.4066667"
"0.84","62.01903","0.4168333"
"0.86","62.0238","0.4268667"
"0.88","62.03095","0.4368"
"0.9","62.02459","0.4466"
"0.92","62.83839","0.4565667"
"0.94","67.1657","0.4664"
"0.96","74.48673","0.4764"
"0.98","81.74896","0.4866667"
"1","88.01142","0.4967667"
"1.02","93.43306","0.5068667"
"1.04","99.07643","0.5168334"
"1.06","106.8322","0.5267"
"1.08","115.7967","0.5364"
"1.1","125.169","0.5462667"
"1.12","134.6199","0.5564333"
"1.14","143.8038","0.5665666"
"1.16","152.8017","0.5766"
"1.18","161.9824","0.5867667"
"1.2","171.1202","0.5967"
"1.22","180.134","0.6067"
"1.24","189.1748","0.6163667"
"1.26","198.1878","0.6265333"
"1.28","207.1246","0.6364334"
"1.3","216.0915","0.6464667"
"1.32","224.9153","0.6565667"
"1.34","233.6295","0.6667333"
"1.36","242.149","0.6768333"
"1.38","250.4691","0.6867667"
"1.4","258.7692","0.6965333"
"1.42","267.0058","0.7065667"
"1.44","275.205","0.7162333"
"1.46","283.3962","0.7262334"
"1.48","291.493","0.7365667"
"1.5","299.511","0.7467334"
"1.52","307.5202","0.7567334"
"1.54","315.4095","0.7668334"
"1.56","323.1883","0.7766333"
"1.58","330.9751","0.7864333"
"1.6","338.5862","0.7964"
"1.62","346.0121","0.8064667"
"1.64","353.4118","0.8167"
"1.66","360.678","0.8267334"
"1.68","367.9411","0.8368334"
"1.7","375.2216","0.8468"
"1.72","382.506","0.8566667"
"1.74","389.6443","0.8664333"
"1.76","396.4909","0.8765"
"1.78","403.0442","0.8864334"
"1.8","409.4211","0.8965"
"1.82","415.7416","0.9066"
"1.84","422.1821","0.9167"
"1.86","428.5526","0.9268"
"1.88","434.6283","0.9367"
"1.9","440.3535","0.9465667"
"1.92","445.5948","0.9565667"
"1.94","450.4458","0.9664"
"1.96","455.3405","0.9763"
"1.98","460.3243","0.9865667"
"2","464.9965","0.9966334"
"2.02","469.389","1.006833"
"2.04","473.4794","1.016833"
"2.06","477.3521","1.026733"
"2.08","480.9634","1.0365"
"2.1","484.3187","1.0464"
"2.12","487.4245","1.056467"
"2.14","490.2863","1.0667"
"2.16","493.056","1.076767"
"2.18","495.8781","1.0869"
"2.2","498.7717","1.096867"
"2.22","501.6764","1.106633"
"2.24","504.4492","1.1164"
"2.26","507.0853","1.1265"
"2.28","509.6316","1.136467"
"2.3","512.3568","1.146533"
"2.32","515.2416","1.156633"
"2.34","518.2838","1.166767"
"2.36","521.3825","1.1768"
"2.38","524.4517","1.1867"
"2.4","527.5591","1.196567"
"2.42","530.688","1.2066"
"2.44","533.8303","1.216167"
"2.46","537.0991","1.2263"
"2.48","540.4027","1.236533"
"2.5","543.8837","1.2466"
"2.52","547.533","1.256767"
"2.54","551.1617","1.266767"
"2.56","554.8557","1.276667"
"2.58","558.4232","1.286433"
"2.6","561.7984","1.296367"
"2.62","565.0846","1.3064"
"2.64","568.3994","1.316667"
"2.66","571.7921","1.326733"
"2.68","575.397","1.336867"
"2.7","579.0607","1.346767"
"2.72","582.6251","1.356533"
"2.74","586.0456","1.366367"
"2.76","589.3668","1.3765"
"2.78","592.6188","1.3864"
"2.8","595.9519","1.3965"
"2.82","599.2047","1.406633"
"2.84","602.5934","1.416733"
"2.86","605.9623","1.4268"
"2.88","609.2254","1.436767"
"2.9","612.4647","1.4466"
"2.92","615.6461","1.4566"
"2.94","618.7963","1.466433"
"2.96","622.0118","1.4763"
"2.98","625.2106","1.4866"
"3","628.3498","1.4967"
"3.02","631.6129","1.506867"
"3.04","634.8212","1.516867"
"3.06","637.9811","1.5267"
"3.08","641.1107","1.536433"
"3.1","644.0067","1.546367"
"3.12","646.7661","1.5564"
"3.14","649.4904","1.5666"
"3.16","652.2282","1.576767"
"3.18","655.0399","1.586833"
"3.2","657.8525","1.596733"
"3.22","660.5323","1.606633"
"3.24","663.0604","1.6164"
"3.26","665.5963","1.6265"
"3.28","668.0298","1.6365"
"3.3","670.5022","1.6465"
"3.32","673.0374","1.6566"
"3.34","675.6441","1.666833"
"3.36","678.3168","1.676933"
"3.38","681.088","1.6868"
"3.4","683.8902","1.6967"
"3.42","686.4309","1.706633"
"3.44","688.7189","1.716267"
"3.46","690.9395","1.726367"
"3.48","693.14","1.7366"
"3.5","695.467","1.746667"
"3.52","697.9124","1.7568"
"3.54","700.291","1.766767"
"3.56","702.6593","1.7766"
"3.58","704.8932","1.7864"
"3.6","706.9842","1.7964"
"3.62","709.1014","1.806433"
"3.64","711.2829","1.816667"
"3.66","713.4406","1.826767"
"3.68","715.696","1.836767"
"3.7","718.0079","1.8467"
"3.72","720.2244","1.8566"
"3.74","722.3598","1.866333"
"3.76","724.504","1.876433"
"3.78","726.6069","1.886467"
"3.8","728.7065","1.896433"
"3.82","730.811","1.9066"
"3.84","732.9233","1.9168"
"3.86","735.0477","1.926933"
"3.88","737.1203","1.936733"
"3.9","739.1421","1.9466"
"3.92","741.0081","1.9566"
"3.94","742.8105","1.9664"
"3.96","744.4684","1.976367"
"3.98","745.9617","1.9866"
"4","747.5583","1.996633"
"4.02","749.2884","2.0068"
"4.04","751.0765","2.016967"
"4.06","752.9219","2.0266"
"4.08","754.6639","2.0364"
"4.1","756.1819","2.0464"
"4.12","757.7562","2.056433"
"4.14","759.4784","2.066633"
"4.16","761.191","2.0767"
"4.18","762.9879","2.0868"
"4.2","764.7999","2.0967"
"4.22","766.5237","2.106567"
"4.24","768.1274","2.116333"
"4.26","769.674","2.1265"
"4.28","771.1657","2.136567"
"4.3","772.6987","2.146567"
"4.32","774.2444","2.1566"
"4.34","775.8045","2.166767"
"4.36","777.3423","2.176867"
"4.38","778.877","2.186767"
"4.4","780.406","2.1966"
"4.42","781.819","2.2066"
"4.44","783.1144","2.2163"
"4.46","784.3217","2.226333"
"4.48","785.5272","2.236633"
"4.5","786.8353","2.2467"
"4.52","788.238","2.256833"
"4.54","789.5883","2.266833"
"4.56","790.9338","2.276633"
"4.58","792.1592","2.2865"
"4.6","793.2623","2.2964"
"4.62","794.3471","2.3065"
"4.64","795.4136","2.316733"
"4.66","796.4309","2.3268"
"4.68","797.5237","2.3367"
"4.7","798.5711","2.3468"
"4.72","799.5025","2.356667"
"4.74","800.4459","2.3664"
"4.76","801.3845","2.376433"
"4.78","802.207","2.386433"
"4.8","803.0454","2.396533"
"4.82","803.9856","2.406533"
"4.84","805.0521","2.416633"
"4.86","806.0686","2.426767"
"4.88","806.9937","2.436667"
"4.9","807.9282","2.446567"
"4.92","808.7548","2.4566"
"4.94","809.4835","2.466333"
"4.96","810.2957","2.4763"
"4.98","811.0889","2.4866"
"5","811.89","2.4967"
"5.02","812.8325","2.5068"
"5.04","813.7289","2.516867"
"5.06","814.5778","2.526633"
"5.08","815.3176","2.5365"
"5.1","815.866","2.546367"
"5.12","807.2726","2.5575"
"5.14","586.9508","2.567133"
"5.16","138.4624","2.5769"
"5.18","30.29505","2.583167"
"5.19","30.61215","2.583467"