Folder: Modified-Jubilee/degradation_testing/tensile_testing/Resin/Resin_IPA

Note: README.md
# Modified Jubilee  
### Master‚Äôs Thesis Design Files & Documentation  

---

## üìò Overview

This repository contains all design files, mechanical models, firmware, scripts, and supporting documentation used in the development of my Master‚Äôs thesis:

**‚ÄúDESIGN, MODIFICATION, AND EVALUATION OF THE JUBILEE  
OPEN-SOURCE MOTION PLATFORM FOR AUTOMATED DIP COATING‚Äù**

This repository exists to support replication, modification, and extension of the system in alignment with open-source hardware principles.

File: Resin_IPA_1.csv
"1 _ 1",,
"Time","Force","Stroke"
"sec","N","mm"
"0","2.872149","0.0001333333"
"0.02","2.887249","0.006566667"
"0.04","3.372033","0.01663333"
"0.06","6.655852","0.02663333"
"0.08","13.10905","0.03663334"
"0.1","20.06769","0.04656667"
"0.12","26.7156","0.05623334"
"0.14","33.13621","0.0663"
"0.16","39.38913","0.07663333"
"0.18","45.58722","0.08666667"
"0.2","51.82981","0.0968"
"0.22","57.88485","0.1069333"
"0.24","62.73587","0.1167333"
"0.26","64.41593","0.1264667"
"0.28","64.43819","0.1364667"
"0.3","64.42944","0.1464667"
"0.32","64.48825","0.1566333"
"0.34","64.52798","0.1667667"
"0.36","64.55024","0.1769667"
"0.38","64.56534","0.1869"
"0.4","64.5717","0.1966667"
"0.42","64.57011","0.2065333"
"0.44","64.57885","0.2165333"
"0.46","64.59872","0.2264667"
"0.48","64.61302","0.2365333"
"0.5","64.63051","0.2467333"
"0.52","64.63846","0.2567667"
"0.54","64.65674","0.2668"
"0.56","64.66866","0.2767667"
"0.58","64.66309","0.2865667"
"0.6","64.65196","0.2966"
"0.62","64.64799","0.3064333"
"0.64","64.63528","0.3164"
"0.66","64.61938","0.3266"
"0.68","64.61302","0.3367"
"0.7","64.62177","0.3467667"
"0.72","64.65435","0.3567667"
"0.74","64.66309","0.3666667"
"0.76","64.67024","0.3764667"
"0.78","64.6925","0.3864667"
"0.8","64.72667","0.3965333"
"0.82","64.73303","0.4067333"
"0.84","64.7513","0.4167333"
"0.86","64.77118","0.4268667"
"0.88","64.77038","0.4368"
"0.9","64.78628","0.4466667"
"0.92","64.79501","0.4565"
"0.94","64.81489","0.4666333"
"0.96","64.83555","0.4765334"
"0.98","64.89118","0.4866"
"1","65.01357","0.4966667"
"1.02","65.96327","0.5068333"
"1.04","69.15569","0.5168667"
"1.06","73.85333","0.5268334"
"1.08","79.03417","0.5366333"
"1.1","84.79993","0.5466334"
"1.12","90.82794","0.5562667"
"1.14","96.94497","0.5664"
"1.16","103.0135","0.5766"
"1.18","109.1131","0.5866666"
"1.2","115.2722","0.5968333"
"1.22","121.3789","0.6068667"
"1.24","127.3831","0.6166667"
"1.26","133.0916","0.6264667"
"1.28","138.4648","0.6365"
"1.3","143.733","0.6464334"
"1.32","149.0426","0.6565667"
"1.34","154.3339","0.6666667"
"1.36","159.7245","0.6768667"
"1.38","165.0921","0.6868"
"1.4","170.3691","0.6966"
"1.42","175.4522","0.7064334"
"1.44","180.401","0.7165"
"1.46","185.3212","0.7264667"
"1.48","190.2421","0.7366"
"1.5","195.1623","0.7467334"
"1.52","200.0809","0.7568"
"1.54","204.9693","0.7668334"
"1.56","209.7297","0.7767667"
"1.58","214.4551","0.7866667"
"1.6","219.0789","0.7966334"
"1.62","223.5572","0.8064667"
"1.64","228.006","0.8164334"
"1.66","232.4223","0.8266333"
"1.68","236.7648","0.8367333"
"1.7","241.096","0.8469"
"1.72","245.3526","0.8569"
"1.74","249.4812","0.8666667"
"1.76","253.4358","0.8764334"
"1.78","257.1615","0.8863667"
"1.8","260.7687","0.8963333"
"1.82","264.4666","0.9064667"
"1.84","268.1947","0.9166667"
"1.86","271.9259","0.9268"
"1.88","275.5999","0.9367667"
"1.9","279.053","0.9466333"
"1.92","282.2797","0.9564"
"1.94","285.3719","0.9665334"
"1.96","288.3299","0.9765"
"1.98","291.2974","0.9864333"
"2","294.2514","0.9966667"
"2.02","297.1768","1.006833"
"2.04","300.0943","1.016933"
"2.06","302.9752","1.026833"
"2.08","305.775","1.036733"
"2.1","308.4238","1.046667"
"2.12","310.967","1.0564"
"2.14","313.4751","1.0665"
"2.16","315.9499","1.076633"
"2.18","318.4199","1.0867"
"2.2","320.8939","1.096867"
"2.22","323.3178","1.1069"
"2.24","325.6917","1.1167"
"2.26","327.9487","1.126433"
"2.28","330.0547","1.136467"
"2.3","332.1075","1.1465"
"2.32","334.1722","1.1567"
"2.34","336.2258","1.166733"
"2.36","338.3215","1.176867"
"2.38","340.4037","1.1867"
"2.4","342.4263","1.1966"
"2.42","344.3925","1.2064"
"2.44","346.3499","1.2165"
"2.46","348.2691","1.2265"
"2.48","350.1789","1.2366"
"2.5","352.1053","1.2467"
"2.52","354.0143","1.2568"
"2.54","355.9065","1.266867"
"2.56","357.7622","1.2768"
"2.58","359.5964","1.286733"
"2.6","361.3281","1.2966"
"2.62","363.0201","1.306467"
"2.64","364.7192","1.316433"
"2.66","366.4764","1.3267"
"2.68","368.251","1.336633"
"2.7","370.0829","1.346833"
"2.72","371.8535","1.356933"
"2.74","373.6552","1.366633"
"2.76","375.3757","1.376467"
"2.78","376.9589","1.3865"
"2.8","378.5753","1.3965"
"2.82","380.2109","1.406633"
"2.84","381.8337","1.416733"
"2.86","383.5058","1.426833"
"2.88","385.1962","1.436733"
"2.9","386.792","1.446633"
"2.92","388.3131","1.4564"
"2.94","389.773","1.4666"
"2.96","391.175","1.476533"
"2.98","392.5999","1.4866"
"3","394.0129","1.496633"
"3.02","395.4331","1.506767"
"3.04","396.8271","1.5169"
"3.06","398.2019","1.526733"
"3.08","399.5689","1.536567"
"3.1","400.8405","1.5465"
"3.12","402.0031","1.5563"
"3.14","403.2278","1.5664"
"3.16","404.493","1.576633"
"3.18","405.7717","1.586633"
"3.2","407.0981","1.596833"
"3.22","408.3411","1.606867"
"3.24","409.5872","1.6167"
"3.26","410.7356","1.626467"
"3.28","411.8045","1.636467"
"3.3","412.8154","1.646533"
"3.32","413.8128","1.6567"
"3.34","414.8062","1.666767"
"3.36","415.8099","1.676833"
"3.38","416.7716","1.6869"
"3.4","417.7046","1.6968"
"3.42","418.5764","1.7065"
"3.44","419.3886","1.716567"
"3.46","420.1619","1.726467"
"3.48","420.9796","1.7365"
"3.5","421.7974","1.746667"
"3.52","422.6367","1.756733"
"3.54","423.4815","1.7668"
"3.56","424.2587","1.7768"
"3.58","424.9946","1.786633"
"3.6","425.6725","1.796567"
"3.62","426.2495","1.8064"
"3.64","426.8432","1.8164"
"3.66","427.4543","1.826667"
"3.68","428.0933","1.8367"
"3.7","428.7712","1.846833"
"3.72","429.3863","1.8569"
"3.74","429.9569","1.866633"
"3.76","430.4616","1.8765"
"3.78","430.8367","1.886433"
"3.8","431.1967","1.896533"
"3.82","431.5821","1.906667"
"3.84","431.9747","1.9168"
"3.86","432.3928","1.926867"
"3.88","432.8267","1.9368"
"3.9","433.2082","1.9467"
"3.92","433.507","1.956467"
"3.94","433.7724","1.966567"
"3.96","434.0243","1.9765"
"3.98","434.2866","1.9865"
"4","434.564","1.996633"
"4.02","434.8683","2.0068"
"4.04","435.1894","2.016867"
"4.06","435.4779","2.0268"
"4.08","435.7179","2.036667"
"4.1","435.8904","2.046567"
"4.12","436.0064","2.056267"
"4.14","436.1534","2.0664"
"4.16","436.2822","2.076467"
"4.18","436.4324","2.086433"
"4.2","436.5818","2.0967"
"4.22","436.7057","2.106867"
"4.24","436.8869","2.1167"
"4.26","437.0165","2.1264"
"4.28","436.9871","2.136467"
"4.3","436.9378","2.1465"
"4.32","436.9402","2.156633"
"4.34","436.9449","2.166733"
"4.36","437.0204","2.176733"
"4.38","437.1095","2.186833"
"4.4","437.1444","2.196633"
"4.42","437.1969","2.206467"
"4.44","437.212","2.2166"
"4.46","437.1651","2.2265"
"4.48","437.1492","2.236567"
"4.5","437.1277","2.2467"
"4.52","437.1611","2.2568"
"4.54","437.2104","2.2669"
"4.56","437.1961","2.276833"
"4.58","437.158","2.286667"
"4.6","437.0379","2.296633"
"4.62","436.8663","2.306433"
"4.64","436.724","2.3164"
"4.66","436.608","2.3267"
"4.68","436.5301","2.336733"
"4.7","422.5222","2.347333"
"4.72","259.8874","2.357033"
"4.74","59.7318","2.3667"
"4.76","30.10909","2.373233"
"4.77","29.43357","2.3738"

File: Resin_IPA_2.csv
"1 _ 1",,
"Time","Force","Stroke"
"sec","N","mm"
"0","0.5515416","6.666667E-05"
"0.02","0.5737941","0.006"
"0.04","0.8567174","0.01596667"
"0.06","2.836386","0.02636667"
"0.08","8.142789","0.03646667"
"0.1","15.14435","0.04643333"
"0.12","21.90193","0.05636667"
"0.14","28.11273","0.0662"
"0.16","33.83875","0.0763"
"0.18","39.18489","0.08656666"
"0.2","44.25367","0.09676667"
"0.22","48.58732","0.1066667"
"0.24","50.45096","0.1167667"
"0.26","50.54474","0.1266"
"0.28","50.69494","0.1364"
"0.3","50.50898","0.1464"
"0.32","49.64431","0.1564333"
"0.34","49.65305","0.1666667"
"0.36","50.69256","0.1767333"
"0.38","50.81971","0.1868333"
"0.4","50.79667","0.197"
"0.42","50.77203","0.2068333"
"0.44","50.7458","0.2165667"
"0.46","50.71402","0.2265"
"0.48","50.69892","0.2364667"
"0.5","50.67825","0.2465333"
"0.52","50.68382","0.2565667"
"0.54","50.66554","0.2668667"
"0.56","50.69017","0.2769667"
"0.58","50.67825","0.2867333"
"0.6","50.71481","0.2965"
"0.62","50.78316","0.3065333"
"0.64","50.85786","0.3163667"
"0.66","50.90793","0.3265667"
"0.68","50.93972","0.3367333"
"0.7","50.97469","0.3468333"
"0.72","50.98264","0.3567667"
"0.74","51.00171","0.3667333"
"0.76","50.99694","0.3766"
"0.78","50.99535","0.3864667"
"0.8","50.99297","0.3964"
"0.82","51.04621","0.4065"
"0.84","51.05178","0.4167333"
"0.86","51.12012","0.4266667"
"0.88","51.46424","0.4368"
"0.9","51.9069","0.4469333"
"0.92","52.09287","0.4567667"
"0.94","52.33765","0.4665667"
"0.96","52.73263","0.4765667"
"0.98","53.36682","0.4863667"
"1","54.31096","0.4965333"
"1.02","55.86227","0.5065333"
"1.04","59.05946","0.5167667"
"1.06","64.03923","0.5269667"
"1.08","70.0593","0.5367333"
"1.1","76.44415","0.5464666"
"1.12","82.58978","0.5565333"
"1.14","88.41753","0.5663667"
"1.16","94.12766","0.5765"
"1.18","99.69314","0.5866666"
"1.2","105.1426","0.5968333"
"1.22","110.5046","0.6067667"
"1.24","115.6274","0.6167"
"1.26","120.3044","0.6265"
"1.28","124.4267","0.6364667"
"1.3","128.1166","0.6464"
"1.32","131.5936","0.6565"
"1.34","134.9719","0.6666"
"1.36","138.2391","0.6766334"
"1.38","141.3806","0.6867667"
"1.4","144.3521","0.6969"
"1.42","147.2886","0.7067333"
"1.44","150.1584","0.7164"
"1.46","152.8637","0.7264"
"1.48","155.4823","0.7363334"
"1.5","158.0612","0.7465"
"1.52","160.5853","0.7565667"
"1.54","163.1077","0.7668334"
"1.56","165.6095","0.7768667"
"1.58","168.0843","0.7867333"
"1.6","170.5074","0.7965333"
"1.62","172.7573","0.8066"
"1.64","174.8482","0.8164334"
"1.66","176.9344","0.8265667"
"1.68","178.9641","0.8367667"
"1.7","180.9963","0.8468667"
"1.72","183.0236","0.8568333"
"1.74","184.9858","0.8668"
"1.76","186.9051","0.8767"
"1.78","188.7846","0.8864667"
"1.8","190.5338","0.8964334"
"1.82","192.2178","0.9065"
"1.84","193.9853","0.9166667"
"1.86","196.0206","0.9265667"
"1.88","198.3277","0.9367"
"1.9","200.4552","0.9468667"
"1.92","202.345","0.9567333"
"1.94","204.1372","0.9665"
"1.96","205.8745","0.9765667"
"1.98","207.684","0.9864"
"2","209.5556","0.9965667"
"2.02","211.4407","1.006567"
"2.04","213.3846","1.016767"
"2.06","215.2896","1.026933"
"2.08","217.1127","1.0367"
"2.1","218.8587","1.046567"
"2.12","220.5189","1.056567"
"2.14","222.1735","1.0664"
"2.16","223.8743","1.076567"
"2.18","225.6552","1.086733"
"2.2","227.5467","1.096933"
"2.22","229.5176","1.106733"
"2.24","231.5346","1.116833"
"2.26","233.5278","1.1266"
"2.28","235.5719","1.136367"
"2.3","237.5897","1.146367"
"2.32","239.6711","1.156433"
"2.34","241.8478","1.1666"
"2.36","244.0254","1.176667"
"2.38","246.2053","1.1868"
"2.4","248.3503","1.1969"
"2.42","250.4643","1.206733"
"2.44","252.5711","1.216433"
"2.46","254.6104","1.226333"
"2.48","256.6512","1.236367"
"2.5","258.7621","1.2464"
"2.52","260.9126","1.2564"
"2.54","263.025","1.2667"
"2.56","265.104","1.276867"
"2.58","267.2283","1.2867"
"2.6","269.3597","1.296467"
"2.62","271.3712","1.306533"
"2.64","273.3358","1.3164"
"2.66","275.3862","1.326433"
"2.68","277.5025","1.336733"
"2.7","279.669","1.3468"
"2.72","281.9204","1.3567"
"2.74","284.1115","1.366667"
"2.76","286.2787","1.376633"
"2.78","288.4499","1.3865"
"2.8","290.5703","1.396433"
"2.82","292.6667","1.406567"
"2.84","294.8578","1.4167"
"2.86","297.2118","1.426667"
"2.88","299.7375","1.4368"
"2.9","302.2726","1.446933"
"2.92","304.7252","1.456733"
"2.94","306.9456","1.466533"
"2.96","308.8665","1.476533"
"2.98","310.6523","1.4864"
"3","312.4547","1.496533"
"3.02","314.1912","1.506633"
"3.04","315.9793","1.516833"
"3.06","317.7531","1.526933"
"3.08","319.4412","1.536667"
"3.1","320.9988","1.5465"
"3.12","322.3506","1.556467"
"3.14","323.5475","1.5663"
"3.16","324.7452","1.5764"
"3.18","326.0215","1.586733"
"3.2","327.4258","1.5969"
"3.22","328.9111","1.606667"
"3.24","330.3798","1.6167"
"3.26","331.7976","1.626633"
"3.28","333.2035","1.636467"
"3.3","334.5243","1.646433"
"3.32","335.8181","1.656467"
"3.34","337.1437","1.6667"
"3.36","338.5266","1.676733"
"3.38","340.0008","1.686767"
"3.4","341.4496","1.696967"
"3.42","342.865","1.706833"
"3.44","344.2852","1.716567"
"3.46","345.5798","1.7264"
"3.48","346.7727","1.736333"
"3.5","347.9497","1.746533"
"3.52","349.1656","1.756567"
"3.54","350.3728","1.7668"
"3.56","351.4775","1.776867"
"3.58","352.7053","1.7867"
"3.6","354.019","1.796433"
"3.62","355.258","1.8065"
"3.64","356.3746","1.816333"
"3.66","357.3918","1.8265"
"3.68","358.4329","1.8368"
"3.7","359.6075","1.846833"
"3.72","360.9498","1.856633"
"3.74","362.3494","1.866667"
"3.76","363.7322","1.876567"
"3.78","365.1516","1.8864"
"3.8","366.5225","1.896333"
"3.82","367.8918","1.9065"
"3.84","369.4073","1.916733"
"3.86","371.1025","1.9267"
"3.88","373.0512","1.9368"
"3.9","375.0634","1.946933"
"3.92","377.0502","1.9567"
"3.94","379.0069","1.966467"
"3.96","380.8848","1.976567"
"3.98","382.758","1.986367"
"4","384.7075","1.9965"
"4.02","386.6386","2.0066"
"4.04","388.6366","2.0168"
"4.06","390.6512","2.027"
"4.08","392.5681","2.036767"
"4.1","394.481","2.046567"
"4.12","396.3137","2.056633"
"4.14","398.0613","2.066433"
"4.16","399.7612","2.0765"
"4.18","401.3348","2.086767"
"4.2","402.8924","2.096933"
"4.22","404.4716","2.106633"
"4.24","405.9712","2.116633"
"4.26","407.3739","2.126567"
"4.28","408.8116","2.1365"
"4.3","410.2119","2.146433"
"4.32","411.5947","2.156467"
"4.34","412.9767","2.1667"
"4.36","414.385","2.176667"
"4.38","415.8608","2.1867"
"4.4","417.281","2.196867"
"4.42","418.6789","2.206767"
"4.44","420.0745","2.216533"
"4.46","421.4128","2.226433"
"4.48","422.6963","2.236367"
"4.5","423.9766","2.246567"
"4.52","425.3046","2.256567"
"4.54","426.7518","2.266867"
"4.56","428.1378","2.276967"
"4.58","429.465","2.2868"
"4.6","430.7445","2.2965"
"4.62","431.9016","2.306567"
"4.64","432.9109","2.316333"
"4.66","433.9297","2.326533"
"4.68","434.978","2.336767"
"4.7","436.0922","2.346933"
"4.72","437.2438","2.356733"
"4.74","438.3135","2.366667"
"4.76","439.2703","2.376533"
"4.78","440.1954","2.386433"
"4.8","441.0863","2.396333"
"4.82","441.9788","2.4064"
"4.84","442.8744","2.416633"
"4.86","443.7947","2.426533"
"4.88","444.7587","2.436633"
"4.9","445.6727","2.446833"
"4.92","446.5302","2.456733"
"4.94","447.3448","2.4665"
"4.96","448.0712","2.476567"
"4.98","448.7777","2.486367"
"5","449.5041","2.496467"
"5.02","450.1621","2.5066"
"5.04","450.8734","2.5168"
"5.06","451.5831","2.527"
"5.08","452.2109","2.5367"
"5.1","452.7998","2.546533"
"5.12","453.2655","2.556633"
"5.14","453.6788","2.566433"
"5.16","454.1","2.576533"
"5.18","454.5291","2.586767"
"5.2","455.0044","2.596933"
"5.22","455.4908","2.6066"
"5.24","455.9477","2.616733"
"5.26","456.3196","2.6266"
"5.28","456.717","2.636467"
"5.3","457.046","2.646467"
"5.32","457.3568","2.6565"
"5.34","457.716","2.666667"
"5.36","458.0522","2.676733"
"5.38","458.4153","2.686833"
"5.4","458.7364","2.696933"
"5.42","458.9574","2.706833"
"5.44","459.133","2.716567"
"5.46","459.2053","2.726467"
"5.48","459.249","2.736367"
"5.5","459.2983","2.746467"
"5.52","459.3651","2.756533"
"5.54","459.5407","2.7668"
"5.56","459.7243","2.7769"
"5.58","459.8673","2.786733"
"5.6","459.9754","2.7965"
"5.62","459.9849","2.806567"
"5.64","459.8975","2.816367"
"5.66","459.8331","2.8265"
"5.68","459.7998","2.836767"
"5.7","459.8141","2.846867"
"5.72","459.8689","2.8567"
"5.74","459.8943","2.866667"
"5.76","459.8451","2.8766"
"5.78","459.8037","2.886467"
"5.8","459.7155","2.896467"
"5.82","443.755","2.907067"
"5.84","264.0685","2.9169"
"5.86","47.38887","2.9267"
"5.88","16.51764","2.9322"

File: Resin_IPA_3.csv
"1 _ 1",,
"Time","Force","Stroke"
"sec","N","mm"
"0","0.7192294","0.0001"
"0.02","0.7255872","0.006166667"
"0.04","1.002153","0.01583333"
"0.06","3.139973","0.0259"
"0.08","8.516312","0.0362"
"0.1","15.21587","0.04626667"
"0.12","21.81689","0.05643333"
"0.14","28.18187","0.06653333"
"0.16","34.31797","0.0767"
"0.18","39.61484","0.08683334"
"0.2","42.08724","0.0968"
"0.22","42.28274","0.1065333"
"0.24","42.71587","0.1165333"
"0.26","42.82236","0.1263333"
"0.28","42.76832","0.1365"
"0.3","42.78739","0.1466333"
"0.32","42.84541","0.1568"
"0.34","42.86925","0.1668333"
"0.36","42.90104","0.1768667"
"0.38","42.92011","0.1867333"
"0.4","42.9368","0.1965"
"0.42","42.94236","0.2063"
"0.44","42.97256","0.2165333"
"0.46","42.96303","0.2266667"
"0.48","42.97177","0.2366667"
"0.5","42.97416","0.2467333"
"0.52","42.97892","0.2567333"
"0.54","42.95428","0.2666333"
"0.56","42.92567","0.2763"
"0.58","42.9225","0.2863333"
"0.6","42.9225","0.2963667"
"0.62","42.93362","0.3066"
"0.64","42.96939","0.3166"
"0.66","42.99164","0.3268333"
"0.68","43.01151","0.3369333"
"0.7","43.04568","0.3467333"
"0.72","43.07032","0.3564667"
"0.74","43.07508","0.3666"
"0.76","43.07508","0.3764333"
"0.78","43.07906","0.3865"
"0.8","43.11641","0.3967667"
"0.82","43.21337","0.4068667"
"0.84","43.24834","0.4169"
"0.86","43.26184","0.4267667"
"0.88","43.29284","0.4367333"
"0.9","43.7506","0.4464667"
"0.92","46.01955","0.4562667"
"0.94","50.59481","0.4664333"
"0.96","55.33139","0.4767"
"0.98","59.03482","0.4867667"
"1","61.81002","0.4968"
"1.02","63.85406","0.5068333"
"1.04","65.69544","0.5166667"
"1.06","68.53819","0.5264333"
"1.08","73.42895","0.5365334"
"1.1","79.13271","0.5464333"
"1.12","85.1051","0.5566"
"1.14","91.0457","0.5666"
"1.16","97.0014","0.5767667"
"1.18","102.6471","0.5868667"
"1.2","108.157","0.5967667"
"1.22","113.7217","0.6065"
"1.24","118.9979","0.6166"
"1.26","124.0786","0.6262333"
"1.28","129.3643","0.6364334"
"1.3","134.5452","0.6465334"
"1.32","139.7641","0.6567333"
"1.34","145.0372","0.6667667"
"1.36","150.1799","0.6767333"
"1.38","155.2407","0.6866333"
"1.4","160.1768","0.6965"
"1.42","164.8204","0.7063333"
"1.44","169.2796","0.7164667"
"1.46","173.5616","0.7267"
"1.48","177.7172","0.7367667"
"1.5","181.8037","0.7468333"
"1.52","185.7543","0.7568333"
"1.54","189.542","0.7666333"
"1.56","193.1667","0.7764333"
"1.58","196.6071","0.7864"
"1.6","199.9267","0.7964"
"1.62","203.2232","0.8066334"
"1.64","206.519","0.8166667"
"1.66","209.8314","0.8267667"
"1.68","213.0334","0.8368667"
"1.7","216.1066","0.8466667"
"1.72","219.1011","0.8565"
"1.74","221.9613","0.8666"
"1.76","224.7635","0.8763667"
"1.78","227.584","0.8863333"
"1.8","230.3656","0.8966"
"1.82","233.1615","0.9067"
"1.84","236.0288","0.9168"
"1.86","238.7706","0.9267"
"1.88","241.46","0.9366333"
"1.9","244.0747","0.9465333"
"1.92","246.5757","0.9563333"
"1.94","248.9932","0.9665"
"1.96","251.3941","0.9767"
"1.98","253.8212","0.9868"
"2","256.2745","0.9968"
"2.02","258.6889","1.0068"
"2.04","261.0763","1.016667"
"2.06","263.3905","1.0264"
"2.08","265.6547","1.036567"
"2.1","267.9086","1.046567"
"2.12","270.2077","1.0566"
"2.14","272.4973","1.066567"
"2.16","274.8068","1.0768"
"2.18","277.1179","1.0869"
"2.2","279.4798","1.096733"
"2.22","281.8497","1.106567"
"2.24","284.1163","1.116667"
"2.26","286.3574","1.1263"
"2.28","288.7177","1.136367"
"2.3","291.1687","1.1466"
"2.32","293.7714","1.156733"
"2.34","296.4044","1.1669"
"2.36","298.872","1.176767"
"2.38","301.1998","1.186567"
"2.4","303.3622","1.196467"
"2.42","305.3911","1.206333"
"2.44","307.4439","1.216433"
"2.46","309.5452","1.226633"
"2.48","311.6449","1.236733"
"2.5","313.8033","1.246833"
"2.52","315.965","1.2568"
"2.54","318.1211","1.2666"
"2.56","320.1938","1.276367"
"2.58","322.2235","1.286433"
"2.6","324.2453","1.296433"
"2.62","326.3211","1.3066"
"2.64","328.4359","1.316633"
"2.66","330.6206","1.326733"
"2.68","332.7831","1.3369"
"2.7","334.9082","1.346733"
"2.72","337.019","1.3565"
"2.74","339.032","1.366633"
"2.76","341.0236","1.376433"
"2.78","343.0851","1.386433"
"2.8","345.126","1.3966"
"2.82","347.1446","1.4068"
"2.84","349.1521","1.4169"
"2.86","351.1206","1.4267"
"2.88","353.0248","1.436567"
"2.9","354.8495","1.446467"
"2.92","356.6821","1.4563"
"2.94","358.6618","1.4664"
"2.96","360.7202","1.4766"
"2.98","362.7443","1.486767"
"3","364.6795","1.496733"
"3.02","366.559","1.506733"
"3.04","368.3488","1.516633"
"3.06","370.0256","1.526367"
"3.08","371.6612","1.536433"
"3.1","373.253","1.5465"
"3.12","374.8616","1.5565"
"3.14","376.49","1.566633"
"3.16","378.1509","1.576833"
"3.18","379.8175","1.586967"
"3.2","381.4483","1.596833"
"3.22","382.9845","1.606667"
"3.24","384.3919","1.616633"
"3.26","385.7398","1.626367"
"3.28","387.0829","1.636367"
"3.3","388.449","1.646567"
"3.32","389.8732","1.6568"
"3.34","391.322","1.6669"
"3.36","392.7477","1.676767"
"3.38","394.1409","1.686633"
"3.4","395.4228","1.696467"
"3.42","396.5902","1.7064"
"3.44","397.7545","1.7165"
"3.46","398.9355","1.726733"
"3.48","400.1482","1.736733"
"3.5","401.4039","1.7467"
"3.52","402.6342","1.756733"
"3.54","403.8207","1.766633"
"3.56","404.9579","1.776367"
"3.58","406.0276","1.786433"
"3.6","407.0393","1.796533"
"3.62","408.0605","1.8066"
"3.64","409.0778","1.816633"
"3.66","410.1252","1.8268"
"3.68","411.133","1.836933"
"3.7","412.0851","1.846767"
"3.72","412.968","1.856567"
"3.74","413.7842","1.866567"
"3.76","414.5241","1.8764"
"3.78","415.3061","1.886367"
"3.8","416.077","1.8966"
"3.82","416.9114","1.906733"
"3.84","417.8047","1.916933"
"3.86","418.6503","1.9268"
"3.88","419.5086","1.936533"
"3.9","420.2493","1.9465"
"3.92","420.8477","1.956367"
"3.94","421.5193","1.966433"
"3.96","422.2194","1.9767"
"3.98","422.9037","1.986767"
"4","423.6372","1.996767"
"4.02","424.3573","2.006733"
"4.04","424.9907","2.016633"
"4.06","425.5342","2.0264"
"4.08","426.027","2.036533"
"4.1","426.4641","2.046567"
"4.12","426.9457","2.056567"
"4.14","427.4074","2.066567"
"4.16","427.8692","2.076767"
"4.18","428.3206","2.086933"
"4.2","428.772","2.0967"
"4.22","429.2059","2.106467"
"4.24","429.5333","2.116533"
"4.26","429.8147","2.1263"
"4.28","430.1723","2.1364"
"4.3","430.541","2.146567"
"4.32","430.9535","2.156767"
"4.34","431.3556","2.166867"
"4.36","431.7148","2.176767"
"4.38","432.0955","2.186633"
"4.4","432.3816","2.1965"
"4.42","432.5771","2.206367"
"4.44","432.7242","2.216533"
"4.46","432.8887","2.226833"
"4.48","433.0834","2.236833"
"4.5","433.3178","2.246767"
"4.52","433.507","2.256833"
"4.54","433.6453","2.2667"
"4.56","433.7438","2.2764"
"4.58","433.7939","2.286467"
"4.6","433.7859","2.2965"
"4.62","433.8519","2.3066"
"4.64","433.9464","2.316633"
"4.66","434.0768","2.326767"
"4.68","434.1865","2.336933"
"4.7","434.262","2.346733"
"4.72","434.3359","2.3565"
"4.74","434.316","2.366533"
"4.76","434.2286","2.3763"
"4.78","434.2405","2.3864"
"4.8","434.2651","2.3966"
"4.82","434.3319","2.406767"
"4.84","434.4781","2.4169"
"4.86","434.5767","2.426767"
"4.88","434.622","2.436633"
"4.9","434.5767","2.446467"
"4.92","434.4161","2.456367"
"4.94","434.2731","2.4665"
"4.96","434.165","2.476767"
"4.98","434.107","2.486833"
"5","434.1022","2.496733"
"5.02","434.1014","2.506733"
"5.04","434.0267","2.5167"
"5.06","433.8813","2.5264"
"5.08","433.743","2.536467"
"5.1","433.5896","2.546467"
"5.12","433.4839","2.556533"
"5.14","433.418","2.5666"
"5.16","433.3957","2.5768"
"5.18","433.3774","2.586967"
"5.2","433.3377","2.596733"
"5.22","433.2686","2.606567"
"5.24","433.143","2.616467"
"5.26","432.9586","2.626267"
"5.28","432.7806","2.636333"
"5.3","432.6439","2.646533"
"5.32","417.4217","2.657167"
"5.34","245.5433","2.666967"
"5.36","38.52447","2.676867"
"5.38","8.644263","2.681867"