Folder: Modified-Jubilee/degradation_testing/tensile_testing/Resin/Resin_Control

Note: README.md
# Modified Jubilee  
### Master‚Äôs Thesis Design Files & Documentation  

---

## üìò Overview

This repository contains all design files, mechanical models, firmware, scripts, and supporting documentation used in the development of my Master‚Äôs thesis:

**‚ÄúDESIGN, MODIFICATION, AND EVALUATION OF THE JUBILEE  
OPEN-SOURCE MOTION PLATFORM FOR AUTOMATED DIP COATING‚Äù**

This repository exists to support replication, modification, and extension of the system in alignment with open-source hardware principles.

File: R-run-1.csv
"1 _ 1",,
"Time","Force","Stroke"
"sec","N","mm"
"0","0.2408028","6.666667E-05"
"0.02","0.2463659","0.006166667"
"0.04","0.6159146","0.0159"
"0.06","3.536542","0.0263"
"0.08","11.18581","0.03636667"
"0.1","21.01262","0.0464"
"0.12","30.40234","0.05616667"
"0.14","39.03468","0.0663"
"0.16","46.31837","0.07656667"
"0.18","50.4756","0.0866"
"0.2","51.82902","0.09676667"
"0.22","52.19857","0.1069"
"0.24","52.16122","0.1167"
"0.26","52.17632","0.1264"
"0.28","52.27566","0.1364333"
"0.3","52.30427","0.1465333"
"0.32","52.31698","0.1567"
"0.34","52.32652","0.1667333"
"0.36","52.35036","0.1769333"
"0.38","52.36467","0.1868333"
"0.4","52.36387","0.1967"
"0.42","52.38692","0.2065"
"0.44","52.37023","0.2166"
"0.46","52.3448","0.2265333"
"0.48","52.40202","0.2365333"
"0.5","52.35354","0.2466667"
"0.52","52.4044","0.2567333"
"0.54","52.41553","0.2668333"
"0.56","52.47752","0.2768667"
"0.58","52.46162","0.2867"
"0.6","52.4807","0.2965333"
"0.62","52.48308","0.3062333"
"0.64","52.49818","0.3163667"
"0.66","52.4958","0.3266"
"0.68","52.49818","0.3365667"
"0.7","52.46719","0.3468"
"0.72","52.49183","0.3568667"
"0.74","52.50692","0.3668"
"0.76","52.5713","0.3765"
"0.78","52.61819","0.3865"
"0.8","52.68733","0.3964667"
"0.82","52.77872","0.4066667"
"0.84","53.16893","0.4166667"
"0.86","55.21297","0.4269"
"0.88","60.30321","0.4367667"
"0.9","66.19691","0.4466333"
"0.92","70.53375","0.4564667"
"0.94","72.62707","0.4664667"
"0.96","74.02499","0.4764"
"0.98","77.72128","0.4865"
"1","86.24872","0.4967"
"1.02","96.37595","0.5066667"
"1.04","105.8531","0.5168"
"1.06","115.3533","0.5267667"
"1.08","125.258","0.5365667"
"1.1","134.8782","0.5465"
"1.12","144.0652","0.5564"
"1.14","153.3953","0.5663334"
"1.16","162.5602","0.5767"
"1.18","171.7091","0.5867"
"1.2","180.9827","0.5968333"
"1.22","190.0458","0.6068333"
"1.24","199.0437","0.6166667"
"1.26","207.8183","0.6264333"
"1.28","216.3442","0.6364"
"1.3","224.6992","0.6464334"
"1.32","232.8499","0.6565667"
"1.34","240.9863","0.6666"
"1.36","249.1236","0.6768"
"1.38","257.2282","0.6867334"
"1.4","265.247","0.6966333"
"1.42","272.9869","0.7064667"
"1.44","280.4891","0.7165"
"1.46","287.8078","0.7264333"
"1.48","295.1566","0.7365"
"1.5","302.2552","0.7466334"
"1.52","308.9515","0.7568"
"1.54","315.1989","0.7668334"
"1.56","320.9909","0.7769"
"1.58","326.4038","0.7867666"
"1.6","331.3684","0.7966667"
"1.62","335.8579","0.8063334"
"1.64","339.9332","0.8163667"
"1.66","343.6502","0.8266333"
"1.68","347.1661","0.8366"
"1.7","350.6565","0.8468667"
"1.72","353.9499","0.8569"
"1.74","357.155","0.8666667"
"1.76","360.287","0.8763334"
"1.78","363.2593","0.8864334"
"1.8","366.2062","0.8964334"
"1.82","369.3549","0.9066"
"1.84","372.6609","0.9167667"
"1.86","376.1602","0.9268667"
"1.88","379.7762","0.9367334"
"1.9","383.3326","0.9466333"
"1.92","386.7952","0.9564667"
"1.94","390.2928","0.9664667"
"1.96","393.7594","0.9763667"
"1.98","397.2459","0.9865667"
"2","400.7975","0.9966667"
"2.02","404.5145","1.006833"
"2.04","408.237","1.016867"
"2.06","411.8657","1.026767"
"2.08","415.4626","1.036633"
"2.1","419.027","1.0466"
"2.12","422.5922","1.0564"
"2.14","426.3282","1.066433"
"2.16","430.1755","1.076633"
"2.18","434.0569","1.0866"
"2.2","438.091","1.0968"
"2.22","442.2076","1.106933"
"2.24","446.403","1.116633"
"2.26","450.5412","1.126433"
"2.28","454.4958","1.136467"
"2.3","458.4869","1.146467"
"2.32","462.5623","1.156567"
"2.34","466.6686","1.166667"
"2.36","470.8823","1.176833"
"2.38","475.1468","1.186667"
"2.4","479.3024","1.1965"
"2.42","483.3094","1.2064"
"2.44","487.2632","1.216567"
"2.46","491.1788","1.2265"
"2.48","495.0992","1.2365"
"2.5","499.0617","1.246633"
"2.52","503.0839","1.256767"
"2.54","507.3055","1.266833"
"2.56","511.6089","1.2768"
"2.58","515.8003","1.286633"
"2.6","519.9178","1.2966"
"2.62","524.2062","1.3063"
"2.64","528.7544","1.3163"
"2.66","533.1222","1.3266"
"2.68","537.2691","1.336667"
"2.7","541.4947","1.346867"
"2.72","545.6996","1.356833"
"2.74","549.864","1.366733"
"2.76","553.9258","1.376433"
"2.78","557.8455","1.3865"
"2.8","561.7086","1.396433"
"2.82","565.5885","1.406667"
"2.84","569.4747","1.416767"
"2.86","573.4714","1.426833"
"2.88","577.449","1.4368"
"2.9","581.3543","1.446633"
"2.92","585.2016","1.4565"
"2.94","589.0592","1.466533"
"2.96","592.8961","1.476433"
"2.98","596.7418","1.486467"
"3","600.5828","1.496667"
"3.02","604.519","1.506633"
"3.04","608.5062","1.516733"
"3.06","612.3916","1.526767"
"3.08","616.3446","1.5366"
"3.1","620.2698","1.546533"
"3.12","623.9843","1.5564"
"3.14","627.7513","1.566367"
"3.16","631.6137","1.576567"
"3.18","635.4896","1.5867"
"3.2","639.5117","1.596833"
"3.22","643.5355","1.6069"
"3.24","647.4916","1.616667"
"3.26","651.3214","1.626467"
"3.28","654.9589","1.636433"
"3.3","658.5598","1.6465"
"3.32","662.171","1.656667"
"3.34","665.7934","1.6668"
"3.36","669.5906","1.6768"
"3.38","673.4268","1.6867"
"3.4","677.123","1.6966"
"3.42","680.7216","1.706433"
"3.44","684.3138","1.716567"
"3.46","687.8209","1.726433"
"3.48","691.367","1.7364"
"3.5","694.9496","1.746633"
"3.52","698.5616","1.756767"
"3.54","702.1992","1.766833"
"3.56","705.8184","1.7768"
"3.58","709.405","1.786667"
"3.6","712.8716","1.796567"
"3.62","716.1863","1.806267"
"3.64","719.5131","1.816433"
"3.66","722.8255","1.8266"
"3.68","726.2063","1.836633"
"3.7","729.603","1.8468"
"3.72","732.9178","1.8569"
"3.74","736.2087","1.8666"
"3.76","739.4012","1.876433"
"3.78","742.3885","1.8865"
"3.8","745.3934","1.896433"
"3.82","748.4063","1.906667"
"3.84","751.3054","1.9168"
"3.86","754.3333","1.926767"
"3.88","757.3947","1.936767"
"3.9","760.301","1.946733"
"3.92","763.1691","1.9564"
"3.94","765.9904","1.966567"
"3.96","768.6504","1.976433"
"3.98","771.3683","1.986533"
"4","774.1102","1.996667"
"4.02","776.8813","2.0068"
"4.04","779.6661","2.016867"
"4.06","782.3642","2.026867"
"4.08","784.9606","2.036633"
"4.1","787.3845","2.046567"
"4.12","789.6249","2.0564"
"4.14","791.8588","2.066333"
"4.16","794.1373","2.076633"
"4.18","796.3967","2.086633"
"4.2","798.765","2.0968"
"4.22","801.0856","2.1069"
"4.24","803.3737","2.116667"
"4.26","805.5242","2.126433"
"4.28","807.4578","2.136433"
"4.3","809.3635","2.146433"
"4.32","811.3027","2.156533"
"4.34","813.2664","2.1667"
"4.36","815.3113","2.1767"
"4.38","817.3688","2.1867"
"4.4","819.3088","2.1967"
"4.42","821.1764","2.206467"
"4.44","823.0456","2.216567"
"4.46","824.7034","2.226467"
"4.48","826.2873","2.2365"
"4.5","827.86","2.246733"
"4.52","829.4122","2.2568"
"4.54","830.9436","2.266867"
"4.56","832.3733","2.2769"
"4.58","833.7347","2.2868"
"4.6","834.9633","2.296567"
"4.62","836.0537","2.3062"
"4.64","837.0574","2.3163"
"4.66","838.0309","2.3266"
"4.68","838.1049","2.337433"
"4.7","727.1592","2.347533"
"4.72","265.5101","2.357"
"4.74","27.71219","2.3649"
"4.75","21.45131","2.3657"

File: R-run-2.csv
"1 _ 1",,
"Time","Force","Stroke"
"sec","N","mm"
"0","0.4132589","6.666667E-05"
"0.03","0.4601479","0.0108"
"0.06","3.333886","0.0263"
"0.09","13.9904","0.0415"
"0.12","26.36353","0.05633333"
"0.15","38.2026","0.0712"
"0.18","48.43314","0.08653334"
"0.21","52.53633","0.1017"
"0.24","52.86853","0.1168667"
"0.27","52.71196","0.1316333"
"0.3","52.74375","0.1464667"
"0.33","52.78508","0.1614667"
"0.36","52.90429","0.1768"
"0.39","52.92098","0.1917667"
"0.42","52.90429","0.2067667"
"0.45","52.8876","0.2214333"
"0.48","52.8725","0.2364"
"0.51","52.88839","0.2516333"
"0.54","52.89316","0.2667"
"0.57","52.917","0.2819667"
"0.6","52.92416","0.2966667"
"0.63","52.98138","0.3115667"
"0.66","53.04416","0.3263"
"0.69","53.08469","0.3415"
"0.72","53.08469","0.3568"
"0.75","53.07118","0.3718"
"0.78","53.0537","0.3865"
"0.81","53.07992","0.4013667"
"0.84","53.11568","0.4165667"
"0.87","53.16893","0.4317333"
"0.9","53.34298","0.4467667"
"0.93","57.38974","0.4615667"
"0.96","66.50527","0.4764667"
"0.99","74.44223","0.4914334"
"1.02","81.89281","0.5066667"
"1.05","89.03901","0.5217333"
"1.08","98.98504","0.5368333"
"1.11","110.1319","0.5514666"
"1.14","121.6936","0.5664"
"1.17","134.0612","0.5813667"
"1.2","145.0388","0.5966"
"1.23","157.6972","0.6119334"
"1.26","168.8496","0.6266333"
"1.29","180.7245","0.6414"
"1.32","191.1823","0.6563666"
"1.35","202.1496","0.6716"
"1.38","212.9078","0.6868667"
"1.41","223.6923","0.7017667"
"1.44","234.4283","0.7164667"
"1.47","244.4379","0.7314333"
"1.5","254.4363","0.7464333"
"1.53","264.1185","0.7616"
"1.56","273.9255","0.7768"
"1.59","283.2627","0.7918333"
"1.62","292.1152","0.8065667"
"1.65","300.1054","0.8213"
"1.68","308.2585","0.8365334"
"1.71","316.5412","0.8517667"
"1.74","324.475","0.8669"
"1.77","331.9272","0.8815"
"1.8","338.4256","0.8965"
"1.83","343.9935","0.9114333"
"1.86","348.897","0.9266667"
"1.89","353.5104","0.9417334"
"1.92","357.9887","0.9566"
"1.95","362.0863","0.9713333"
"1.98","365.8899","0.9863667"
"2.01","369.4479","1.0016"
"2.04","372.87","1.016733"
"2.07","376.0409","1.031933"
"2.1","378.8264","1.046733"
"2.13","381.2885","1.061567"
"2.16","383.5623","1.076367"
"2.19","385.8805","1.091567"
"2.22","388.2543","1.106767"
"2.25","390.3222","1.121767"
"2.28","391.6685","1.136433"
"2.31","392.6539","1.151367"
"2.34","393.7483","1.1665"
"2.37","394.9547","1.1817"
"2.4","396.2676","1.196667"
"2.43","397.4803","1.211567"
"2.46","398.5842","1.2265"
"2.49","399.7254","1.241533"
"2.52","401.1456","1.2567"
"2.55","402.9576","1.271767"
"2.58","404.9969","1.2868"
"2.61","407.0926","1.301467"
"2.64","409.2423","1.3163"
"2.67","411.7012","1.3314"
"2.7","414.4366","1.346567"
"2.73","417.5194","1.361933"
"2.76","420.6006","1.376633"
"2.79","423.5443","1.391467"
"2.82","426.3369","1.406433"
"2.85","429.306","1.4218"
"2.88","432.4873","1.4368"
"2.91","435.9229","1.451767"
"2.94","439.4484","1.466533"
"2.97","442.9499","1.481467"
"3","446.2878","1.4964"
"3.03","449.7433","1.511533"
"3.06","453.4507","1.526667"
"3.09","457.058","1.5417"
"3.12","460.7725","1.5565"
"3.15","464.3409","1.571367"
"3.18","468.0999","1.586533"
"3.21","472.0306","1.6018"
"3.24","476.2077","1.616967"
"3.27","480.326","1.6316"
"3.3","484.2234","1.646467"
"3.33","488.0126","1.661433"
"3.36","491.8877","1.676733"
"3.39","495.9742","1.6917"
"3.42","500.0893","1.7066"
"3.45","504.0057","1.721367"
"3.48","507.9762","1.736333"
"3.51","512.0428","1.7515"
"3.54","516.2629","1.766733"
"3.57","520.5059","1.781933"
"3.6","524.5495","1.796767"
"3.63","528.2847","1.811467"
"3.66","531.8951","1.826367"
"3.69","535.5477","1.841567"
"3.72","539.4332","1.8568"
"3.75","543.1874","1.871733"
"3.78","547.0347","1.886433"
"3.81","550.7827","1.9013"
"3.84","554.3661","1.916533"
"3.87","557.754","1.9318"
"3.9","561.3875","1.946667"
"3.93","564.8708","1.9617"
"3.96","568.3589","1.9765"
"3.99","571.8088","1.991533"
"4.02","575.4399","2.006667"
"4.05","579.2792","2.021767"
"4.08","583.2441","2.036833"
"4.11","587.1066","2.051533"
"4.14","590.996","2.0664"
"4.17","595.0228","2.0813"
"4.2","599.0045","2.096633"
"4.23","603.2554","2.111867"
"4.26","607.3395","2.1267"
"4.29","611.4284","2.141467"
"4.32","615.2654","2.156367"
"4.35","619.243","2.171667"
"4.38","623.4296","2.1868"
"4.41","627.8189","2.201733"
"4.44","632.0524","2.216567"
"4.47","636.3463","2.231433"
"4.5","640.428","2.2465"
"4.53","644.5909","2.261667"
"4.56","648.8268","2.276767"
"4.59","652.9728","2.291833"
"4.62","657.0681","2.306567"
"4.65","660.9941","2.321233"
"4.68","664.8493","2.336567"
"4.71","669.0406","2.351733"
"4.74","673.3298","2.366767"
"4.77","677.4783","2.3815"
"4.8","681.3923","2.396467"
"4.83","685.2825","2.411467"
"4.86","689.2721","2.426767"
"4.89","693.4452","2.441667"
"4.92","697.4618","2.4566"
"4.95","701.2789","2.471333"
"4.98","704.9465","2.4864"
"5.01","708.522","2.501633"
"5.04","712.2294","2.516733"
"5.07","716.0179","2.531967"
"5.1","719.6982","2.546667"
"5.13","723.2467","2.5616"
"5.16","726.6243","2.5763"
"5.19","730.1799","2.5916"
"5.22","733.9279","2.606767"
"5.25","737.749","2.621733"
"5.28","741.4325","2.636467"
"5.31","744.8181","2.651367"
"5.34","748.2608","2.666633"
"5.37","751.609","2.681833"
"5.4","755.0422","2.696567"
"5.43","758.2911","2.711533"
"5.46","761.5081","2.726533"
"5.49","764.6823","2.7415"
"5.52","767.8254","2.7567"
"5.55","771.0878","2.771733"
"5.58","774.3112","2.786767"
"5.61","777.475","2.801567"
"5.64","780.522","2.816267"
"5.67","783.4578","2.8314"
"5.7","786.5016","2.846567"
"5.73","789.7544","2.8619"
"5.76","792.8578","2.876733"
"5.79","795.7538","2.8915"
"5.82","798.1896","2.9064"
"5.85","800.6573","2.9217"
"5.88","803.2044","2.936833"
"5.91","805.8008","2.9518"
"5.94","808.2509","2.966467"
"5.97","810.5119","2.981367"
"6","812.6267","2.996367"
"6.03","814.7963","3.011567"
"6.06","817.1066","3.0267"
"6.09","819.3","3.041733"
"6.12","821.29","3.056567"
"6.15","823.032","3.071333"
"6.18","824.7733","3.086533"
"6.21","826.4868","3.101767"
"6.24","828.2264","3.116933"
"6.27","829.7467","3.1316"
"6.3","830.9778","3.146533"
"6.33","832.0244","3.161533"
"6.36","833.0973","3.176767"
"6.39","834.2346","3.1916"
"6.42","835.3225","3.206567"
"6.45","836.1427","3.221367"
"6.48","836.881","3.236433"
"6.51","837.5788","3.251533"
"6.54","838.1987","3.266767"
"6.57","838.8654","3.282"
"6.6","839.3645","3.2967"
"6.63","839.5219","3.311567"
"6.66","839.4607","3.326333"
"6.69","839.3486","3.341533"
"6.72","839.3216","3.357233"
"6.75","613.0823","3.372267"
"6.78","41.23688","3.3865"
"6.8","22.14273","3.390567"

File: R-run-3.csv
"1 _ 1",,
"Time","Force","Stroke"
"sec","N","mm"
"0","-4.457633","0.0001"
"0.02","-4.444122","0.006066667"
"0.04","-4.065037","0.0157"
"0.06","-1.111031","0.026"
"0.08","6.209215","0.03643334"
"0.1","15.42807","0.04653334"
"0.12","24.84322","0.05663333"
"0.14","33.91584","0.06673333"
"0.16","42.43612","0.07656667"
"0.18","50.20142","0.08633333"
"0.2","56.46149","0.0964"
"0.22","60.21102","0.1064"
"0.24","61.12973","0.1165667"
"0.26","61.09158","0.1266333"
"0.28","61.46828","0.1368333"
"0.3","61.61372","0.1469333"
"0.32","61.63995","0.1567667"
"0.34","61.64233","0.1666"
"0.36","61.63995","0.1766333"
"0.38","61.63438","0.1863667"
"0.4","61.62246","0.1963667"
"0.42","61.57398","0.2066667"
"0.44","61.54696","0.2168333"
"0.46","61.48497","0.2269"
"0.48","61.44047","0.2368667"
"0.5","61.40391","0.2466667"
"0.52","61.39596","0.2564667"
"0.54","61.42457","0.2663333"
"0.56","61.48021","0.2764667"
"0.58","61.50882","0.2867333"
"0.6","61.55809","0.2967"
"0.62","61.60657","0.3068"
"0.64","61.6916","0.3167667"
"0.66","61.73452","0.3267334"
"0.68","61.74723","0.3364"
"0.7","61.75041","0.3465667"
"0.72","61.77664","0.3565"
"0.74","61.79174","0.3666333"
"0.76","61.77187","0.3766333"
"0.78","61.72578","0.3868"
"0.8","61.72736","0.3969"
"0.82","61.77902","0.4067"
"0.84","61.77902","0.4165667"
"0.86","61.86326","0.4266667"
"0.88","62.35838","0.4362667"
"0.9","65.44829","0.4464333"
"0.92","72.06361","0.4566"
"0.94","79.06119","0.4667"
"0.96","84.55356","0.4767"
"0.98","88.38018","0.4867667"
"1","91.15935","0.4966334"
"1.02","93.71916","0.5064334"
"1.04","96.87186","0.5163333"
"1.06","102.2625","0.5264333"
"1.08","110.5213","0.5366667"
"1.1","120.6279","0.5466667"
"1.12","130.7042","0.5568333"
"1.14","139.2786","0.5667667"
"1.16","148.0238","0.5766333"
"1.18","157.6726","0.5864667"
"1.2","166.568","0.5964333"
"1.22","174.8141","0.6064"
"1.24","183.4989","0.6165333"
"1.26","192.0923","0.6266667"
"1.28","200.758","0.6367667"
"1.3","209.7805","0.6467667"
"1.32","218.1745","0.6566667"
"1.34","226.3602","0.6665"
"1.36","234.6373","0.6765667"
"1.38","242.5385","0.6863667"
"1.4","250.5867","0.6963667"
"1.42","258.6007","0.7065667"
"1.44","266.389","0.7166667"
"1.46","274.3832","0.7268333"
"1.48","282.0269","0.7367667"
"1.5","289.228","0.7466667"
"1.52","296.3376","0.7565"
"1.54","303.4004","0.7663667"
"1.56","310.5855","0.7765334"
"1.58","317.653","0.7867333"
"1.6","324.4543","0.7968"
"1.62","331.0672","0.8068"
"1.64","337.0881","0.8168"
"1.66","342.4637","0.8266667"
"1.68","347.3552","0.8364"
"1.7","351.8987","0.8465334"
"1.72","356.2943","0.8565333"
"1.74","360.5978","0.8666"
"1.76","364.8066","0.8766"
"1.78","368.9893","0.8867667"
"1.8","372.8851","0.8969333"
"1.82","376.6616","0.9067333"
"1.84","380.4048","0.9166334"
"1.86","384.0168","0.9266"
"1.88","387.6265","0.9362333"
"1.9","391.3427","0.9463333"
"1.92","395.124","0.9565334"
"1.94","398.9665","0.9666667"
"1.96","402.809","0.9767667"
"1.98","406.6022","0.9868"
"2","410.4241","0.9966667"
"2.02","414.2118","1.0065"
"2.04","417.9192","1.016367"
"2.06","421.5598","1.026433"
"2.08","425.1933","1.0367"
"2.1","428.8157","1.046767"
"2.12","432.6502","1.056833"
"2.14","436.5452","1.066733"
"2.16","440.4354","1.076567"
"2.18","444.2684","1.086367"
"2.2","448.0871","1.096467"
"2.22","451.8859","1.106433"
"2.24","455.7085","1.116533"
"2.26","459.5796","1.126633"
"2.28","463.6097","1.136733"
"2.3","467.7455","1.146867"
"2.32","471.8725","1.156767"
"2.34","475.9725","1.166533"
"2.36","479.8849","1.176633"
"2.38","483.6519","1.186367"
"2.4","487.562","1.1963"
"2.42","491.5659","1.2066"
"2.44","495.6142","1.216767"
"2.46","499.7531","1.2269"
"2.48","503.7363","1.236767"
"2.5","507.6218","1.2466"
"2.52","511.3928","1.256467"
"2.54","515.1002","1.2664"
"2.56","518.8688","1.276467"
"2.58","522.7264","1.2867"
"2.6","526.5609","1.296767"
"2.62","530.4694","1.306733"
"2.64","534.4144","1.316733"
"2.66","538.3563","1.326667"
"2.68","542.3181","1.336367"
"2.7","546.4451","1.3465"
"2.72","550.4179","1.356533"
"2.74","554.2628","1.3665"
"2.76","558.0775","1.3766"
"2.78","561.9804","1.386833"
"2.8","565.9811","1.396933"
"2.82","570.0286","1.406767"
"2.84","574.0261","1.416667"
"2.86","578.014","1.426667"
"2.88","582.0568","1.436333"
"2.9","586.1481","1.446367"
"2.92","589.993","1.456633"
"2.94","593.826","1.466733"
"2.96","597.7265","1.4768"
"2.98","601.5325","1.486833"
"3","605.3162","1.496567"
"3.02","609.0435","1.506433"
"3.04","612.5562","1.516367"
"3.06","616.0657","1.5265"
"3.08","619.6443","1.536733"
"3.1","623.2182","1.546733"
"3.12","626.8176","1.556733"
"3.14","630.4232","1.566767"
"3.16","634.0098","1.576633"
"3.18","637.5686","1.5864"
"3.2","641.0193","1.5964"
"3.22","644.296","1.606467"
"3.24","647.467","1.616567"
"3.26","650.6538","1.626667"
"3.28","653.9337","1.6368"
"3.3","657.1571","1.646933"
"3.32","660.2319","1.6567"
"3.34","663.2638","1.666533"
"3.36","666.2305","1.676567"
"3.38","669.2449","1.686333"
"3.4","672.369","1.696367"
"3.42","675.4979","1.706633"
"3.44","678.6013","1.716733"
"3.46","681.8016","1.726833"
"3.48","684.9471","1.7368"
"3.5","688.1062","1.746567"
"3.52","691.1238","1.756467"
"3.54","693.9236","1.7664"
"3.56","696.7847","1.776467"
"3.58","699.652","1.786733"
"3.6","702.4916","1.796767"
"3.62","705.4297","1.806767"
"3.64","708.3622","1.816733"
"3.66","711.1915","1.826533"
"3.68","713.869","1.8364"
"3.7","716.4367","1.8465"
"3.72","718.9687","1.856567"
"3.74","721.5555","1.866567"
"3.76","724.1742","1.8766"
"3.78","726.8278","1.8868"
"3.8","729.4655","1.8969"
"3.82","732.046","1.906767"
"3.84","734.6257","1.916567"
"3.86","737.1052","1.926633"
"3.88","739.4854","1.936267"
"3.9","741.9387","1.946367"
"3.92","744.4056","1.956567"
"3.94","746.9948","1.9667"
"3.96","749.6786","1.976867"
"3.98","752.2909","1.986767"
"4","754.9023","1.996667"
"4.02","757.3613","2.006533"
"4.04","759.689","2.016433"
"4.06","761.9715","2.026533"
"4.08","764.3231","2.036767"
"4.1","766.6937","2.0468"
"4.12","769.128","2.056733"
"4.14","771.478","2.066767"
"4.16","773.72","2.076667"
"4.18","775.9301","2.086433"
"4.2","778.1482","2.096533"
"4.22","780.317","2.106467"
"4.24","782.4175","2.116833"
"4.26","735.6667","2.1275"
"4.28","372.3486","2.136933"
"4.3","53.47411","2.146867"
"4.32","30.50963","2.150667"