Folder: Modified-Jubilee/degradation_testing/tensile_testing/Resin/Resin_Acetone

Note: README.md
# Modified Jubilee  
### Master‚Äôs Thesis Design Files & Documentation  

---

## üìò Overview

This repository contains all design files, mechanical models, firmware, scripts, and supporting documentation used in the development of my Master‚Äôs thesis:

**‚ÄúDESIGN, MODIFICATION, AND EVALUATION OF THE JUBILEE  
OPEN-SOURCE MOTION PLATFORM FOR AUTOMATED DIP COATING‚Äù**

This repository exists to support replication, modification, and extension of the system in alignment with open-source hardware principles.

File: Resin_A_1.csv
"1 _ 1",,
"Time","Force","Stroke"
"sec","N","mm"
"0","0.4402796","0.0001"
"0.03","0.4975001","0.011"
"0.06","3.066063","0.0261"
"0.09","12.76096","0.04116667"
"0.12","24.53963","0.05626667"
"0.15","37.40947","0.07163333"
"0.18","50.99137","0.08673333"
"0.21","63.95896","0.1018"
"0.24","71.16953","0.1164667"
"0.27","71.63048","0.1313667"
"0.3","71.64637","0.1465333"
"0.33","71.65988","0.1617"
"0.36","71.67896","0.1769333"
"0.39","71.68611","0.1917"
"0.42","71.69008","0.2065"
"0.45","71.69247","0.2214"
"0.48","71.67101","0.2367"
"0.51","71.65988","0.2519333"
"0.54","71.6726","0.2667667"
"0.57","71.67101","0.2815333"
"0.6","71.68372","0.2965"
"0.63","71.69326","0.3115333"
"0.66","71.70598","0.3266"
"0.69","71.73538","0.3417667"
"0.72","71.78625","0.3567"
"0.75","71.83791","0.3715333"
"0.78","71.8689","0.3863333"
"0.81","71.87287","0.4016"
"0.84","71.88081","0.4168"
"0.87","71.87128","0.4319"
"0.9","71.85618","0.4466333"
"0.93","71.85538","0.4614667"
"0.96","71.97778","0.4764667"
"0.99","73.73254","0.4916667"
"1.02","80.96774","0.5069"
"1.05","92.20361","0.5217"
"1.08","103.871","0.5364"
"1.11","115.819","0.5513"
"1.14","128.111","0.5665333"
"1.17","141.1017","0.5816666"
"1.2","154.1257","0.5969"
"1.23","166.7126","0.6116334"
"1.26","178.593","0.6266"
"1.29","189.9608","0.6412333"
"1.32","201.0592","0.6565"
"1.35","211.943","0.6717667"
"1.38","222.2196","0.6867"
"1.41","231.2978","0.7014"
"1.44","238.2978","0.7163333"
"1.47","243.4007","0.7315667"
"1.5","247.7781","0.7468"
"1.53","252.0466","0.7618"
"1.56","256.087","0.7767"
"1.59","259.8524","0.7915334"
"1.62","263.3929","0.8065333"
"1.65","267.0089","0.8216333"
"1.68","270.7672","0.8368"
"1.71","274.5009","0.8518333"
"1.74","278.0596","0.8665667"
"1.77","281.2545","0.8812667"
"1.8","284.3992","0.8963333"
"1.83","287.3739","0.9116"
"1.86","290.2134","0.9268333"
"1.89","292.5507","0.9417334"
"1.92","294.5193","0.9564667"
"1.95","295.8433","0.9714"
"1.98","296.8478","0.9866667"
"2.01","298.6208","1.001867"
"2.04","300.6133","1.016767"
"2.07","302.5063","1.031467"
"2.1","304.5646","1.046433"
"2.13","306.9703","1.0615"
"2.16","309.8011","1.0767"
"2.19","313.1747","1.0918"
"2.22","316.8329","1.1067"
"2.25","320.7254","1.1215"
"2.28","324.6307","1.1364"
"2.31","328.842","1.151633"
"2.34","333.2003","1.166767"
"2.37","337.7326","1.181867"
"2.4","342.2515","1.196533"
"2.43","346.6209","1.2114"
"2.46","350.9871","1.226367"
"2.49","355.4789","1.241633"
"2.52","360.4952","1.2567"
"2.55","366.0997","1.271633"
"2.58","371.1224","1.286367"
"2.61","375.5959","1.301367"
"2.64","380.0019","1.3165"
"2.67","384.6184","1.331767"
"2.7","389.4861","1.346967"
"2.73","394.3427","1.361733"
"2.76","399.0491","1.376633"
"2.79","403.6951","1.3913"
"2.82","408.4643","1.406567"
"2.85","413.5609","1.4218"
"2.88","418.6972","1.4368"
"2.91","423.8622","1.4514"
"2.94","428.6885","1.466333"
"2.97","433.5761","1.481533"
"3","438.6306","1.496833"
"3.03","443.9831","1.511733"
"3.06","449.2712","1.5266"
"3.09","454.5251","1.541467"
"3.12","459.7068","1.556467"
"3.15","464.9313","1.5717"
"3.18","470.3561","1.586867"
"3.21","475.7778","1.6018"
"3.24","480.988","1.616467"
"3.27","485.9837","1.631467"
"3.3","491.1136","1.646367"
"3.33","496.3152","1.6616"
"3.36","501.7678","1.6769"
"3.39","507.2705","1.691633"
"3.42","512.4998","1.7065"
"3.45","517.4803","1.7214"
"3.48","522.5507","1.736667"
"3.51","527.6958","1.751867"
"3.54","532.9434","1.7668"
"3.57","538.0018","1.7815"
"3.6","542.663","1.7965"
"3.63","547.0507","1.811467"
"3.66","551.6592","1.826567"
"3.69","556.3569","1.841733"
"3.72","561.0959","1.856667"
"3.75","565.7601","1.871533"
"3.78","570.2392","1.886267"
"3.81","574.7525","1.9015"
"3.84","579.3286","1.916767"
"3.87","584.0635","1.931867"
"3.9","588.7739","1.9466"
"3.93","593.1544","1.9615"
"3.96","597.3363","1.976533"
"3.99","601.4402","1.991767"
"4.02","605.6968","2.006667"
"4.05","609.8072","2.021667"
"4.08","613.7848","2.036433"
"4.11","617.5566","2.051433"
"4.14","621.2537","2.066567"
"4.17","625.0429","2.081633"
"4.2","628.8775","2.096833"
"4.23","632.5563","2.111667"
"4.26","636.0316","2.126567"
"4.29","639.3385","2.1413"
"4.32","642.7606","2.156533"
"4.35","646.2979","2.171833"
"4.38","649.972","2.186733"
"4.41","653.526","2.201433"
"4.44","656.7383","2.216367"
"4.47","660.0134","2.231567"
"4.5","663.4958","2.2469"
"4.53","667.1874","2.261767"
"4.56","670.8392","2.276667"
"4.59","674.3566","2.291467"
"4.62","677.7652","2.306433"
"4.65","681.4043","2.321567"
"4.68","685.246","2.336867"
"4.71","689.2832","2.3519"
"4.74","693.1416","2.3665"
"4.77","696.8045","2.3812"
"4.8","700.4365","2.396367"
"4.83","704.298","2.411467"
"4.86","708.1572","2.426833"
"4.89","711.987","2.4417"
"4.92","715.7588","2.4565"
"4.95","719.2206","2.471367"
"4.98","722.754","2.486733"
"5.01","726.4439","2.501767"
"5.04","730.2872","2.5168"
"5.07","733.997","2.5315"
"5.1","737.7044","2.546467"
"5.13","741.2585","2.5615"
"5.16","744.8856","2.5766"
"5.19","748.6462","2.5918"
"5.22","752.2933","2.6067"
"5.25","755.7766","2.621567"
"5.28","758.9523","2.6364"
"5.31","762.2028","2.6516"
"5.34","765.4921","2.666767"
"5.37","768.9222","2.6819"
"5.4","772.295","2.696533"
"5.43","775.4413","2.711467"
"5.46","778.4247","2.726433"
"5.49","781.4407","2.741733"
"5.52","784.6371","2.756567"
"5.55","787.8328","2.771667"
"5.58","790.9004","2.786433"
"5.61","793.7797","2.801433"
"5.64","796.6447","2.816533"
"5.67","799.5566","2.831767"
"5.7","802.4343","2.846933"
"5.73","805.0363","2.861833"
"5.76","807.4769","2.8765"
"5.79","809.6822","2.8914"
"5.82","811.8582","2.906567"
"5.85","814.3083","2.921767"
"5.88","816.5892","2.936667"
"5.91","818.8137","2.9514"
"5.94","820.6177","2.966333"
"5.97","822.3899","2.9816"
"6","824.2266","2.996833"
"6.03","826.1641","3.011633"
"6.06","827.7225","3.0266"
"6.09","829.1713","3.041467"
"6.12","830.3396","3.056467"
"6.15","831.3918","3.071667"
"6.18","832.549","3.086767"
"6.21","833.6075","3.101867"
"6.24","834.504","3.1165"
"6.27","835.0643","3.1314"
"6.3","835.6261","3.146333"
"6.33","836.1467","3.161633"
"6.36","836.8715","3.176933"
"6.39","837.4095","3.191733"
"6.42","837.7385","3.206633"
"6.45","837.7949","3.221467"
"6.48","837.7298","3.236733"
"6.51","837.6368","3.251833"
"6.54","837.5867","3.266733"
"6.57","837.2347","3.2814"
"6.6","836.7173","3.296433"
"6.63","836.1228","3.311433"
"6.66","835.5856","3.326567"
"6.69","835.1167","3.341767"
"6.72","834.295","3.357267"
"6.75","595.9948","3.372033"
"6.78","55.40292","3.3852"
"6.79","40.65514","3.3865"

File: Resin_A_2.csv
"1 _ 1",,
"Time","Force","Stroke"
"sec","N","mm"
"0","0.342528","0.0001"
"0.02","0.3616015","0.0063"
"0.04","0.9083748","0.0165"
"0.06","4.765193","0.02656667"
"0.08","12.4677","0.0368"
"0.1","20.46188","0.04686667"
"0.12","27.77576","0.05663333"
"0.14","35.05707","0.06646667"
"0.16","42.66183","0.0764"
"0.18","50.57414","0.0864"
"0.2","58.40381","0.09666667"
"0.22","64.74177","0.1067667"
"0.24","67.18238","0.1168667"
"0.26","67.36517","0.1268667"
"0.28","67.32146","0.1367"
"0.3","67.32543","0.1464667"
"0.32","67.40173","0.1565667"
"0.34","67.42557","0.1664667"
"0.36","67.43193","0.1765333"
"0.38","67.45736","0.1867333"
"0.4","67.47325","0.1967333"
"0.42","67.46371","0.2068"
"0.44","67.48835","0.2167667"
"0.46","67.49789","0.2266667"
"0.48","67.50663","0.2366667"
"0.5","67.50822","0.2464"
"0.52","67.50425","0.2564"
"0.54","67.48994","0.2667"
"0.56","67.49948","0.2767667"
"0.58","67.48994","0.2869"
"0.6","67.50107","0.2969"
"0.62","67.48438","0.3067333"
"0.64","67.49074","0.3165333"
"0.66","67.50345","0.3265"
"0.68","67.54875","0.3366"
"0.7","67.61074","0.3466667"
"0.72","67.63696","0.3568"
"0.74","67.6473","0.3668"
"0.76","67.66001","0.3768333"
"0.78","67.65604","0.3867667"
"0.8","67.68068","0.3965333"
"0.82","67.67989","0.4066333"
"0.84","67.6624","0.4165334"
"0.86","67.66875","0.4265667"
"0.88","67.69975","0.4367333"
"0.9","67.68465","0.4468667"
"0.92","67.72916","0.4569333"
"0.94","67.84121","0.4668667"
"0.96","68.54216","0.4767333"
"0.98","71.53432","0.4866667"
"1","77.85241","0.4962667"
"1.02","84.13474","0.5064334"
"1.04","88.4668","0.5166667"
"1.06","92.77821","0.5266667"
"1.08","99.49922","0.5368667"
"1.1","108.1212","0.5468"
"1.12","117.0143","0.5566667"
"1.14","125.5369","0.5663667"
"1.16","133.841","0.5763333"
"1.18","141.9687","0.5864334"
"1.2","149.9168","0.5966"
"1.22","157.7226","0.6067333"
"1.24","165.4204","0.6168666"
"1.26","172.7343","0.6268"
"1.28","179.6365","0.6365667"
"1.3","185.9975","0.6463667"
"1.32","191.733","0.6564667"
"1.34","196.9719","0.6664667"
"1.36","201.5519","0.6765667"
"1.38","205.3277","0.6867"
"1.4","208.5614","0.6968"
"1.42","211.2802","0.7069"
"1.44","213.4538","0.7168667"
"1.46","215.2665","0.7266334"
"1.48","216.771","0.7365333"
"1.5","218.0783","0.7464333"
"1.52","219.4579","0.7564"
"1.54","220.9028","0.7666667"
"1.56","222.2403","0.7767333"
"1.58","223.5238","0.7869"
"1.6","224.6833","0.7968667"
"1.62","225.6711","0.8067"
"1.64","226.4198","0.8164667"
"1.66","227.0977","0.8264"
"1.68","227.9258","0.8365"
"1.7","228.8969","0.8466667"
"1.72","229.8983","0.8567667"
"1.74","230.9132","0.8668333"
"1.76","231.9805","0.8768667"
"1.78","233.0438","0.8867"
"1.8","233.9149","0.8965"
"1.82","234.7294","0.9065667"
"1.84","235.4598","0.9165"
"1.86","236.3165","0.9265667"
"1.88","237.3354","0.9366667"
"1.9","238.5799","0.9468667"
"1.92","240.0374","0.9569333"
"1.94","241.7787","0.9668334"
"1.96","243.988","0.9766667"
"1.98","245.4193","0.9866667"
"2","243.1401","0.9963"
"2.02","239.4795","1.006433"
"2.04","236.9603","1.016733"
"2.06","235.8691","1.026733"
"2.08","235.8127","1.036867"
"2.1","236.3435","1.0469"
"2.12","237.3378","1.056733"
"2.14","238.7039","1.066467"
"2.16","240.3116","1.076467"
"2.18","241.9432","1.0865"
"2.2","243.6685","1.096667"
"2.22","245.5846","1.106767"
"2.24","247.7622","1.1169"
"2.26","250.1543","1.126833"
"2.28","252.587","1.136667"
"2.3","254.972","1.146433"
"2.32","257.2751","1.1565"
"2.34","259.459","1.166433"
"2.36","261.5905","1.176467"
"2.38","263.6894","1.186567"
"2.4","265.8248","1.1967"
"2.42","268.0008","1.2068"
"2.44","270.1624","1.216767"
"2.46","272.3193","1.226667"
"2.48","274.504","1.2366"
"2.5","276.6967","1.2464"
"2.52","278.9593","1.2564"
"2.54","281.2521","1.266667"
"2.56","283.5854","1.276733"
"2.58","285.9489","1.2869"
"2.6","288.2036","1.296967"
"2.62","290.4344","1.306733"
"2.64","292.5436","1.316467"
"2.66","294.3873","1.3265"
"2.68","296.0372","1.336533"
"2.7","297.5305","1.3467"
"2.72","299.1096","1.356733"
"2.74","300.9534","1.3669"
"2.76","302.9346","1.376767"
"2.78","304.8627","1.386633"
"2.8","306.5705","1.3964"
"2.82","308.2434","1.406567"
"2.84","309.8877","1.416467"
"2.86","311.5892","1.4265"
"2.88","313.4529","1.436633"
"2.9","315.5526","1.446833"
"2.92","317.715","1.456933"
"2.94","319.7424","1.466867"
"2.96","321.5941","1.4767"
"2.98","323.1732","1.4867"
"3","324.5735","1.496333"
"3.02","326.1352","1.5065"
"3.04","327.8542","1.516667"
"3.06","329.9006","1.526767"
"3.08","332.2236","1.5369"
"3.1","334.58","1.546867"
"3.12","336.9482","1.556733"
"3.14","339.2227","1.566533"
"3.16","341.3383","1.576467"
"3.18","343.3752","1.5865"
"3.2","345.4669","1.5967"
"3.22","347.5889","1.606733"
"3.24","349.7823","1.616867"
"3.26","351.8701","1.626867"
"3.28","353.8625","1.636667"
"3.3","355.8238","1.646467"
"3.32","357.8313","1.656533"
"3.34","359.869","1.666433"
"3.36","362.0315","1.6765"
"3.38","364.2869","1.686733"
"3.4","366.6774","1.696833"
"3.42","369.1498","1.706833"
"3.44","371.5563","1.7168"
"3.46","373.9246","1.7266"
"3.48","376.2269","1.7366"
"3.5","378.2121","1.746433"
"3.52","380.0615","1.7564"
"3.54","381.9545","1.7667"
"3.56","383.8563","1.776767"
"3.58","385.917","1.7869"
"3.6","387.9881","1.7969"
"3.62","390.0989","1.8067"
"3.64","392.2137","1.8164"
"3.66","394.326","1.826367"
"3.68","396.5998","1.836467"
"3.7","399.1206","1.846633"
"3.72","401.7536","1.856733"
"3.74","404.4962","1.8669"
"3.76","407.2444","1.876767"
"3.78","409.9512","1.886667"
"3.8","412.5102","1.896433"
"3.82","415.0359","1.9066"
"3.84","417.4805","1.916533"
"3.86","419.9918","1.926533"
"3.88","422.5493","1.936667"
"3.9","425.2108","1.946767"
"3.92","427.9383","1.956867"
"3.94","430.6888","1.9669"
"3.96","433.4784","1.9767"
"3.98","436.2822","1.986633"
"4","439.0128","1.9963"
"4.02","441.7753","2.006367"
"4.04","444.6205","2.0166"
"4.06","447.6659","2.0267"
"4.08","450.9028","2.036833"
"4.1","454.0594","2.046833"
"4.12","457.054","2.056733"
"4.14","459.7179","2.066467"
"4.16","461.905","2.076433"
"4.18","463.9125","2.086433"
"4.2","466.0781","2.096733"
"4.22","468.4083","2.1068"
"4.24","471.0333","2.116933"
"4.26","473.6463","2.126833"
"4.28","476.0321","2.1367"
"4.3","478.3312","2.1465"
"4.32","480.6852","2.156533"
"4.34","483.1131","2.166433"
"4.36","485.5402","2.1766"
"4.38","487.8696","2.186767"
"4.4","490.1957","2.196833"
"4.42","492.4003","2.206933"
"4.44","494.3728","2.216833"
"4.46","496.2699","2.226667"
"4.48","498.0318","2.2366"
"4.5","499.7102","2.2464"
"4.52","501.5421","2.2563"
"4.54","503.5162","2.2666"
"4.56","505.5849","2.276733"
"4.58","507.919","2.286933"
"4.6","510.331","2.2969"
"4.62","512.7526","2.3067"
"4.64","514.884","2.316467"
"4.66","516.7222","2.326433"
"4.68","518.6359","2.336467"
"4.7","520.6617","2.346733"
"4.72","522.4919","2.3567"
"4.74","523.7563","2.366833"
"4.76","524.5773","2.3767"
"4.78","524.8181","2.3866"
"4.8","524.9953","2.396467"
"4.82","524.9731","2.4066"
"4.84","524.6854","2.416567"
"4.86","524.7434","2.426533"
"4.88","524.594","2.4366"
"4.9","523.3217","2.4468"
"4.92","518.9117","2.4569"
"4.94","509.1405","2.466833"
"4.96","496.9931","2.4767"
"4.98","485.4417","2.4867"
"5","476.4517","2.4906"

File: Resin_A_2a.csv
"1 _ 1",,
"Time","Force","Stroke"
"sec","N","mm"
"0","4.064242","0.0001"
"0.03","4.158815","0.01083333"
"0.06","7.430712","0.02616667"
"0.09","19.32224","0.04123333"
"0.12","33.16959","0.0562"
"0.15","46.15386","0.07153334"
"0.18","53.87862","0.08673333"
"0.21","54.02088","0.1018333"
"0.24","52.85899","0.1165667"
"0.27","53.44312","0.1314333"
"0.3","54.44447","0.1464333"
"0.33","54.53189","0.1616333"
"0.36","54.54302","0.1767667"
"0.39","54.5764","0.1917"
"0.42","54.58514","0.2064"
"0.45","54.58752","0.2213333"
"0.48","54.54938","0.2366333"
"0.51","54.53984","0.2517333"
"0.54","54.59785","0.2669667"
"0.57","54.64315","0.2817"
"0.6","54.69163","0.2966"
"0.63","54.74567","0.3114333"
"0.66","54.73614","0.3266333"
"0.69","54.73693","0.3418333"
"0.72","54.78144","0.3568"
"0.75","54.80925","0.3714667"
"0.78","54.83866","0.3863333"
"0.81","55.02224","0.4016"
"0.84","55.85988","0.4168667"
"0.87","56.04029","0.4318"
"0.9","57.95479","0.4466333"
"0.93","59.53789","0.4614667"
"0.96","63.73405","0.4764333"
"0.99","73.28669","0.4916333"
"1.02","86.23759","0.5067667"
"1.05","99.4436","0.5218667"
"1.08","112.2498","0.5364667"
"1.11","124.8344","0.5513"
"1.14","137.3347","0.5664333"
"1.17","149.7006","0.5816"
"1.2","162.0936","0.5968333"
"1.23","174.3627","0.6117667"
"1.26","186.4743","0.6264667"
"1.29","198.0805","0.6413333"
"1.32","209.5175","0.6566"
"1.35","221.0561","0.6717667"
"1.38","232.5805","0.6867667"
"1.41","243.7758","0.7014334"
"1.44","254.5126","0.7162667"
"1.47","264.7972","0.7314"
"1.5","275.0277","0.7466667"
"1.53","285.325","0.7618334"
"1.56","294.9341","0.7767667"
"1.59","303.9694","0.7915334"
"1.62","312.2282","0.8064"
"1.65","319.9935","0.8216667"
"1.68","327.5466","0.8367667"
"1.71","334.9145","0.8519"
"1.74","341.421","0.8666334"
"1.77","347.0159","0.8814"
"1.8","351.9925","0.8964"
"1.83","356.7449","0.9116667"
"1.86","361.3933","0.9267333"
"1.89","365.6578","0.9416667"
"1.92","369.4121","0.9564334"
"1.95","373.0043","0.9714333"
"1.98","376.5615","0.9866334"
"2.01","380.0106","1.001733"
"2.04","383.4224","1.016967"
"2.07","386.7435","1.031733"
"2.1","389.9185","1.0466"
"2.13","392.8296","1.061367"
"2.16","395.6612","1.076567"
"2.19","398.4769","1.0918"
"2.22","400.6481","1.1067"
"2.25","402.1931","1.1214"
"2.28","402.5292","1.136333"
"2.31","401.5938","1.1516"
"2.34","399.6031","1.1668"
"2.37","397.8054","1.181767"
"2.4","397.4819","1.196533"
"2.43","398.0327","1.211467"
"2.46","399.0491","1.226467"
"2.49","400.5877","1.241667"
"2.52","402.4092","1.256767"
"2.55","403.9391","1.271767"
"2.58","405.3696","1.286467"
"2.61","407.3445","1.301433"
"2.64","409.8709","1.3163"
"2.67","412.6914","1.331567"
"2.7","416.0436","1.3469"
"2.73","419.4776","1.3617"
"2.76","422.8369","1.3765"
"2.79","426.023","1.391467"
"2.82","429.2242","1.4067"
"2.85","432.5755","1.421933"
"2.88","436.1574","1.436767"
"2.91","439.6685","1.4515"
"2.94","443.0954","1.466433"
"2.97","446.4968","1.4815"
"3","449.9857","1.496633"
"3.03","453.5325","1.5118"
"3.06","456.8545","1.5268"
"3.09","460.0207","1.541533"
"3.12","462.8499","1.556267"
"3.15","465.7594","1.571567"
"3.18","468.7579","1.586833"
"3.21","471.8812","1.601967"
"3.24","474.8503","1.616533"
"3.27","477.3807","1.6315"
"3.3","479.788","1.646433"
"3.33","482.324","1.6617"
"3.36","485.1635","1.676833"
"3.39","488.0802","1.691567"
"3.42","490.8133","1.706333"
"3.45","493.5177","1.721333"
"3.48","496.4821","1.7366"
"3.51","499.6681","1.7517"
"3.54","502.9702","1.7669"
"3.57","506.2461","1.781633"
"3.6","509.4489","1.796667"
"3.63","512.5173","1.8113"
"3.66","515.7463","1.826567"
"3.69","519.007","1.8418"
"3.72","522.3647","1.856733"
"3.75","525.6049","1.8714"
"3.78","528.6718","1.886333"
"3.81","532.0159","1.901533"
"3.84","535.5525","1.916833"
"3.87","539.364","1.931733"
"3.9","543.2542","1.9466"
"3.93","547.053","1.961467"
"3.96","550.8002","1.976467"
"3.99","554.7929","1.991667"
"4.02","558.9803","2.0068"
"4.05","563.2408","2.0219"
"4.08","567.3671","2.036567"
"4.11","571.3065","2.0513"
"4.14","575.2524","2.0664"
"4.17","579.3993","2.081567"
"4.2","583.9022","2.096933"
"4.23","588.4568","2.1117"
"4.26","592.7984","2.1265"
"4.29","596.7252","2.1414"
"4.32","600.7584","2.156767"
"4.35","604.9347","2.171833"
"4.38","609.1905","2.186733"
"4.41","613.2674","2.201467"
"4.44","617.1711","2.2164"
"4.47","620.9874","2.2315"
"4.5","624.9253","2.246667"
"4.53","628.9474","2.2618"
"4.56","632.9083","2.276767"
"4.59","636.7858","2.291567"
"4.62","640.428","2.306367"
"4.65","644.2277","2.3215"
"4.68","648.0726","2.336767"
"4.71","652.318","2.352067"
"4.74","656.6827","2.366433"
"4.77","660.6213","2.3814"
"4.8","664.2516","2.396433"
"4.83","668.0814","2.4117"
"4.86","672.063","2.426733"
"4.89","675.9262","2.441633"
"4.92","679.5899","2.4564"
"4.95","683.0645","2.471467"
"4.98","686.5645","2.486533"
"5.01","690.1606","2.501767"
"5.04","693.8124","2.516933"
"5.07","697.4888","2.531633"
"5.1","700.953","2.546533"
"5.13","704.3981","2.5613"
"5.16","707.891","2.576533"
"5.19","711.6119","2.591833"
"5.22","715.3599","2.606733"
"5.25","718.987","2.621433"
"5.28","722.3193","2.636333"
"5.31","725.5769","2.651633"
"5.34","728.8965","2.666833"
"5.37","732.3027","2.6818"
"5.4","735.5333","2.696633"
"5.43","738.67","2.711567"
"5.46","741.6264","2.726467"
"5.49","744.6512","2.741733"
"5.52","747.8198","2.756667"
"5.55","750.8731","2.771833"
"5.58","753.9169","2.786467"
"5.61","756.7318","2.801367"
"5.64","759.5698","2.816333"
"5.67","762.4149","2.831667"
"5.7","765.4985","2.8469"
"5.73","768.4231","2.861767"
"5.76","771.0679","2.8765"
"5.79","773.449","2.8914"
"5.82","775.845","2.9067"
"5.85","778.4192","2.921833"
"5.88","780.9973","2.936767"
"5.91","783.3624","2.951467"
"5.94","785.5495","2.966367"
"5.97","787.6761","2.981433"
"6","789.8784","2.9966"
"6.03","792.1298","3.0118"
"6.06","794.2645","3.026733"
"6.09","796.233","3.0415"
"6.12","797.9425","3.0563"
"6.15","799.6098","3.0715"
"6.18","801.3312","3.086733"
"6.21","802.9341","3.1019"
"6.24","804.5085","3.116567"
"6.27","805.7229","3.131433"
"6.3","806.7354","3.146433"
"6.33","807.7542","3.161833"
"6.36","808.9288","3.176633"
"6.39","809.9437","3.191667"
"6.42","810.7813","3.2064"
"6.45","811.4258","3.2214"
"6.48","812.0012","3.236633"
"6.51","812.6513","3.251767"
"6.54","813.2887","3.266967"
"6.57","813.7592","3.2817"
"6.6","693.6519","3.297167"
"6.63","81.83638","3.311533"
"6.66","21.11991","3.326633"
"6.69","19.77126","3.341833"
"6.72","18.4838","3.356767"
"6.75","18.54897","3.371367"
"6.78","18.7389","3.386333"
"6.81","18.54897","3.401533"
"6.84","18.30101","3.4168"
"6.87","18.39479","3.4318"
"6.9","18.55294","3.4467"
"6.93","18.35108","3.461533"
"6.96","18.22551","3.476433"
"6.99","18.3773","3.4917"
"7.02","18.38128","3.5068"
"7.05","18.25094","3.521867"
"7.08","18.23902","3.5366"
"7.11","18.32565","3.551233"
"7.14","18.35505","3.566433"
"7.17","18.30419","3.5816"
"7.2","18.25968","3.596867"
"7.23","18.32406","3.6117"
"7.26","18.3622","3.6264"
"7.29","18.29783","3.641433"
"7.32","18.27876","3.6567"
"7.35","18.29306","3.6718"
"7.38","18.29465","3.686833"
"7.41","18.26763","3.7015"
"7.44","18.25492","3.716333"
"7.47","18.28114","3.731467"
"7.5","18.26445","3.7466"
"7.53","18.26843","3.761833"
"7.56","18.26763","3.776767"
"7.59","18.29783","3.791533"
"7.62","18.32565","3.806333"
"7.65","18.30816","3.821633"
"7.68","18.31293","3.8368"
"7.71","18.30578","3.8519"
"7.74","18.31452","3.866667"
"7.77","18.29306","3.881467"
"7.8","18.28194","3.8965"
"7.83","18.29942","3.911667"
"7.86","18.29704","3.926733"
"7.89","18.27955","3.9417"
"7.92","18.27717","3.9564"
"7.95","18.28432","3.971333"
"7.98","18.29545","3.9865"
"8.01","18.30657","4.001767"
"8.04","18.32167","4.0169"
"8.07","18.31293","4.031667"
"8.1","18.31214","4.0465"
"8.13","18.32167","4.061367"
"8.16","18.31293","4.0766"
"8.19","18.3169","4.091866"
"8.22","18.30339","4.1068"
"8.25","18.30101","4.121433"
"8.28","18.27478","4.1363"
"8.31","18.28671","4.151567"
"8.33","18.28591","4.156333"