Folder: Modified-Jubilee/degradation_testing/tensile_testing/Resin/Resin_Water

Note: README.md
# Modified Jubilee  
### Master‚Äôs Thesis Design Files & Documentation  

---

## üìò Overview

This repository contains all design files, mechanical models, firmware, scripts, and supporting documentation used in the development of my Master‚Äôs thesis:

**‚ÄúDESIGN, MODIFICATION, AND EVALUATION OF THE JUBILEE  
OPEN-SOURCE MOTION PLATFORM FOR AUTOMATED DIP COATING‚Äù**

This repository exists to support replication, modification, and extension of the system in alignment with open-source hardware principles.

File: Resin_W_1.csv
"1 _ 1",,
"Time","Force","Stroke"
"sec","N","mm"
"0","1.773039","6.666667E-05"
"0.03","1.837412","0.01076667"
"0.06","4.446507","0.02603333"
"0.09","15.55522","0.04106667"
"0.12","29.77689","0.05656667"
"0.15","44.01366","0.07173333"
"0.18","57.88247","0.0868"
"0.21","67.62425","0.1015"
"0.24","68.79488","0.1163667"
"0.27","68.70349","0.1314333"
"0.3","68.71223","0.1466667"
"0.33","68.79409","0.1616667"
"0.36","68.86164","0.1766667"
"0.39","68.89264","0.1913667"
"0.42","68.93953","0.2064667"
"0.45","68.95145","0.2216"
"0.48","68.9594","0.2368"
"0.51","68.93317","0.2519333"
"0.54","68.90138","0.2667"
"0.57","68.868","0.2815"
"0.6","68.81635","0.2963667"
"0.63","68.83701","0.3115667"
"0.66","68.91886","0.3268667"
"0.69","68.9737","0.3417667"
"0.72","69.05953","0.3564333"
"0.75","69.10245","0.3713667"
"0.78","69.11755","0.3867"
"0.81","69.09768","0.4018667"
"0.84","69.07304","0.4168"
"0.87","69.03967","0.4316333"
"0.9","69.00708","0.4464667"
"0.93","69.05714","0.4615333"
"0.96","69.42352","0.4766333"
"0.99","74.82926","0.4918"
"1.02","84.56786","0.5067667"
"1.05","96.85119","0.5214667"
"1.08","110.4601","0.5363667"
"1.11","123.9665","0.5514333"
"1.14","137.6382","0.5665666"
"1.17","151.4292","0.5819333"
"1.2","165.0953","0.5966"
"1.23","178.2656","0.6114666"
"1.26","191.0686","0.6264333"
"1.29","203.9846","0.6417"
"1.32","216.8457","0.6567667"
"1.35","229.4477","0.6717"
"1.38","241.8208","0.6863667"
"1.41","253.7592","0.7013667"
"1.44","265.2089","0.7165334"
"1.47","276.6013","0.7316"
"1.5","287.8348","0.7468"
"1.53","298.7433","0.7616333"
"1.56","309.2297","0.7765334"
"1.59","319.1495","0.7913333"
"1.62","328.8579","0.8065667"
"1.65","338.2905","0.8217667"
"1.68","347.29","0.8368334"
"1.71","356.0623","0.8515"
"1.74","364.124","0.8664333"
"1.77","371.298","0.8815333"
"1.8","377.6415","0.8967"
"1.83","383.5352","0.9117666"
"1.86","389.0014","0.9267"
"1.89","394.1631","0.9414667"
"1.92","398.7837","0.9564334"
"1.95","403.1563","0.9716333"
"1.98","407.4184","0.9867333"
"2.01","411.5319","1.001867"
"2.04","415.4182","1.0166"
"2.07","418.9928","1.031567"
"2.1","422.4364","1.046367"
"2.13","425.938","1.061633"
"2.16","429.4316","1.076833"
"2.19","432.7448","1.091733"
"2.22","435.8252","1.106467"
"2.25","438.4359","1.121367"
"2.28","440.9512","1.136667"
"2.31","443.4943","1.1519"
"2.34","446.0271","1.166733"
"2.37","448.2826","1.181567"
"2.4","450.2042","1.196467"
"2.43","451.8882","1.211467"
"2.46","453.6621","1.2266"
"2.49","455.5837","1.241767"
"2.52","458.2175","1.256767"
"2.55","461.0467","1.271567"
"2.58","463.6073","1.286233"
"2.61","466.2744","1.3015"
"2.64","469.2475","1.3166"
"2.67","472.4741","1.331833"
"2.7","475.8294","1.346633"
"2.73","479.1753","1.361533"
"2.76","482.4042","1.376433"
"2.79","485.793","1.3918"
"2.82","489.4177","1.4067"
"2.85","493.0687","1.421667"
"2.88","496.5417","1.436467"
"2.91","500.083","1.4514"
"2.94","503.6847","1.466533"
"2.97","507.4819","1.481633"
"3","511.5533","1.496867"
"3.03","515.519","1.5118"
"3.06","519.4092","1.526567"
"3.09","522.9982","1.5413"
"3.12","526.7858","1.5567"
"3.15","530.6991","1.571833"
"3.18","534.3922","1.5869"
"3.21","538.1044","1.601467"
"3.24","541.6409","1.6164"
"3.27","545.2521","1.6315"
"3.3","548.9818","1.6467"
"3.33","553.0016","1.6616"
"3.36","556.5818","1.676633"
"3.39","557.3368","1.6915"
"3.42","557.5538","1.706467"
"3.45","557.944","1.721633"
"3.48","558.5996","1.7368"
"3.51","559.1694","1.751933"
"3.54","557.944","1.766733"
"3.57","557.8589","1.781333"
"3.6","558.2913","1.796367"
"3.63","559.473","1.811533"
"3.66","561.7229","1.8268"
"3.69","564.251","1.841633"
"3.72","566.8561","1.8564"
"3.75","569.1481","1.871333"
"3.78","571.9081","1.886633"
"3.81","575.1165","1.901833"
"3.84","578.7372","1.916733"
"3.87","582.2388","1.9316"
"3.9","585.6943","1.9465"
"3.93","589.0361","1.961433"
"3.96","592.4479","1.976633"
"3.99","596.1378","1.9918"
"4.02","599.9645","2.006767"
"4.05","603.7013","2.021467"
"4.08","607.3284","2.036367"
"4.11","611.186","2.0514"
"4.14","615.0071","2.0667"
"4.17","619.1444","2.081933"
"4.2","623.2333","2.0967"
"4.23","627.1585","2.111567"
"4.26","630.8134","2.1265"
"4.29","634.5233","2.141767"
"4.32","638.3499","2.156767"
"4.35","642.2225","2.171667"
"4.38","645.9904","2.1864"
"4.41","649.7471","2.201433"
"4.44","653.3631","2.216467"
"4.47","656.5333","2.231667"
"4.5","659.5898","2.2468"
"4.53","662.5637","2.261733"
"4.56","665.6042","2.276567"
"4.59","668.5678","2.291333"
"4.62","671.7101","2.306567"
"4.65","675.2197","2.321833"
"4.68","678.6259","2.336867"
"4.71","681.9216","2.351533"
"4.74","684.9464","2.366433"
"4.77","687.9854","2.381433"
"4.8","691.0523","2.396733"
"4.83","694.3615","2.4117"
"4.86","697.5269","2.426633"
"4.89","700.6168","2.4414"
"4.92","703.6027","2.456333"
"4.95","706.6568","2.4716"
"4.98","709.8286","2.486667"
"5.01","713.0551","2.501867"
"5.04","716.2833","2.516567"
"5.07","719.2898","2.531533"
"5.1","722.2144","2.5463"
"5.13","725.2606","2.561533"
"5.16","728.4888","2.576833"
"5.19","731.6947","2.5917"
"5.22","734.7886","2.606467"
"5.25","737.6019","2.621367"
"5.28","740.5377","2.636667"
"5.31","743.6196","2.651867"
"5.34","746.8494","2.666767"
"5.37","749.9456","2.681567"
"5.4","753.1023","2.696567"
"5.43","756.1016","2.7115"
"5.46","759.2916","2.726667"
"5.49","762.5175","2.7418"
"5.52","765.6924","2.756833"
"5.55","768.702","2.771567"
"5.58","771.4486","2.786233"
"5.61","774.1133","2.8015"
"5.64","776.879","2.816633"
"5.67","779.8259","2.831967"
"5.7","782.7473","2.8467"
"5.73","785.4263","2.8615"
"5.76","787.7946","2.876433"
"5.79","790.2773","2.891767"
"5.82","792.8967","2.9068"
"5.85","795.5599","2.9216"
"5.88","798.0092","2.936433"
"5.91","800.3704","2.951367"
"5.94","802.5972","2.9665"
"5.97","804.8717","2.9817"
"6","807.1494","2.996833"
"6.03","809.1807","3.011733"
"6.06","811.1223","3.026567"
"6.09","812.8341","3.041333"
"6.12","814.6588","3.0566"
"6.15","816.5582","3.071767"
"6.18","818.5514","3.086833"
"6.21","820.3538","3.101433"
"6.24","821.8519","3.116367"
"6.27","823.2339","3.1314"
"6.3","824.6501","3.146733"
"6.33","826.1466","3.161633"
"6.36","827.4921","3.176633"
"6.39","828.5499","3.1915"
"6.42","829.37","3.206467"
"6.45","830.1497","3.221667"
"6.48","830.9189","3.236767"
"6.51","831.7177","3.251933"
"6.54","832.3487","3.2667"
"6.57","832.7556","3.281467"
"6.6","832.9852","3.296367"
"6.63","833.2292","3.311567"
"6.66","833.722","3.326833"
"6.69","834.0287","3.341667"
"6.72","834.1702","3.356433"
"6.75","833.989","3.371333"
"6.78","833.7307","3.3867"
"6.81","833.4764","3.401967"
"6.84","833.1799","3.416767"
"6.87","832.5696","3.431567"
"6.9","831.8265","3.446467"
"6.93","830.1329","3.4622"
"6.96","527.3994","3.477"
"6.99","44.88945","3.491833"
"7.02","34.12088","3.506767"
"7.05","33.92776","3.5215"
"7.08","33.06627","3.536367"
"7.11","32.72613","3.551467"
"7.14","32.82626","3.566667"
"7.17","32.93912","3.5819"
"7.2","32.78971","3.596667"
"7.23","32.64825","3.611533"
"7.26","32.75712","3.626433"
"7.29","32.81673","3.6417"
"7.32","32.63633","3.656867"
"7.35","32.58149","3.671633"
"7.38","32.6856","3.686333"
"7.41","32.65381","3.7014"
"7.44","32.58784","3.7165"
"7.47","32.5648","3.7316"
"7.5","32.60533","3.7468"
"7.53","32.62361","3.761733"
"7.56","32.57434","3.7766"
"7.59","32.58784","3.7914"
"7.62","32.64109","3.806633"
"7.65","32.64507","3.821833"
"7.68","32.62281","3.836867"
"7.71","32.62043","3.8515"
"7.74","32.65142","3.866433"
"7.77","32.65142","3.881533"
"7.8","32.63394","3.896633"
"7.83","32.62043","3.911767"
"7.86","32.61646","3.926667"
"7.89","32.60772","3.941467"
"7.92","32.58944","3.956433"
"7.95","32.58705","3.9717"
"7.98","32.60295","3.986733"
"8.01","32.59818","4.0019"
"8.04","32.58149","4.0166"
"8.07","32.59818","4.031567"
"8.1","32.61646","4.046367"
"8.13","32.62997","4.061634"
"8.16","32.62361","4.076833"
"8.19","32.64268","4.091767"
"8.22","32.64983","4.106367"
"8.25","32.64586","4.121334"
"8.28","32.62281","4.136633"
"8.31","32.6252","4.151834"
"8.34","32.62758","4.165667"
"8.35","32.61646","4.166934"

File: Resin_W_2.csv
"1 _ 1",,
"Time","Force","Stroke"
"sec","N","mm"
"0","0.3862381","0.0001333333"
"0.03","0.4975001","0.01123333"
"0.06","5.420049","0.02643333"
"0.09","18.71189","0.0416"
"0.12","32.31605","0.05686667"
"0.15","43.80941","0.0717"
"0.18","51.78849","0.0865"
"0.21","53.11568","0.1014333"
"0.24","53.26509","0.1167333"
"0.27","53.77531","0.1318333"
"0.3","53.8667","0.1468"
"0.33","53.91995","0.1614667"
"0.36","53.93982","0.1764667"
"0.39","53.92949","0.1915"
"0.42","53.90485","0.2067"
"0.45","53.83174","0.2219333"
"0.48","53.80869","0.2368333"
"0.51","53.81107","0.2516333"
"0.54","53.89611","0.2664333"
"0.57","53.92949","0.2817"
"0.6","53.93426","0.2969"
"0.63","53.90723","0.3119667"
"0.66","53.96048","0.3266"
"0.69","53.96207","0.3415"
"0.72","53.98035","0.3566"
"0.75","54.02803","0.3717667"
"0.78","54.01452","0.3868333"
"0.81","54.00499","0.4017"
"0.84","54.04711","0.4165"
"0.87","54.09877","0.4314667"
"0.9","54.1997","0.4467"
"0.93","55.9028","0.4618333"
"0.96","65.5063","0.4769333"
"0.99","75.68518","0.4917667"
"1.02","81.86817","0.5066"
"1.05","87.14676","0.5214334"
"1.08","97.54976","0.5366"
"1.11","111.1325","0.5518"
"1.14","124.6921","0.5667"
"1.17","137.9728","0.5814"
"1.2","150.9515","0.5963666"
"1.23","163.8929","0.6116"
"1.26","176.781","0.6268667"
"1.29","189.5873","0.6417667"
"1.32","202.0717","0.6565667"
"1.35","213.9624","0.6715333"
"1.38","225.3318","0.6865667"
"1.41","236.6217","0.7016"
"1.44","247.4761","0.7168"
"1.47","257.9061","0.7318333"
"1.5","267.8156","0.7464667"
"1.53","276.8302","0.7613"
"1.56","285.2782","0.7765"
"1.59","293.1483","0.7916334"
"1.62","299.9743","0.8069333"
"1.65","305.6049","0.8217667"
"1.68","311.2531","0.8365667"
"1.71","316.2622","0.8515334"
"1.74","320.8772","0.8668"
"1.77","325.3126","0.8818667"
"1.8","329.3705","0.8968334"
"1.83","332.6861","0.9115"
"1.86","335.145","0.9264667"
"1.89","336.5668","0.9415667"
"1.92","337.1843","0.9567"
"1.95","336.7495","0.9718333"
"1.98","335.9715","0.9867333"
"2.01","335.9405","1.0016"
"2.04","336.5866","1.016433"
"2.07","338.0028","1.0317"
"2.1","340.0071","1.046867"
"2.13","342.5177","1.061967"
"2.16","345.1562","1.076633"
"2.19","347.3997","1.091467"
"2.22","349.5685","1.106567"
"2.25","352.8349","1.121767"
"2.28","357.1351","1.1368"
"2.31","360.8855","1.151633"
"2.34","364.0866","1.166433"
"2.37","367.0669","1.1814"
"2.4","370.0765","1.196567"
"2.43","373.1704","1.2118"
"2.46","376.691","1.2269"
"2.49","380.4684","1.2417"
"2.52","384.5366","1.256467"
"2.55","389.0713","1.271433"
"2.58","394.0741","1.286567"
"2.61","399.3734","1.3018"
"2.64","404.714","1.316767"
"2.67","410.107","1.331433"
"2.7","415.1686","1.346367"
"2.73","420.2581","1.361667"
"2.76","425.5128","1.376867"
"2.79","430.9201","1.391833"
"2.82","436.1169","1.406633"
"2.85","441.1674","1.421567"
"2.88","445.9643","1.4366"
"2.91","450.9004","1.451733"
"2.94","455.8849","1.466867"
"2.97","460.6334","1.481833"
"3","464.627","1.496567"
"3.03","468.2183","1.511467"
"3.06","472.0283","1.526467"
"3.09","475.9256","1.541767"
"3.12","480.1297","1.557"
"3.15","484.1542","1.571767"
"3.18","487.8251","1.586567"
"3.21","491.027","1.6015"
"3.24","494.2489","1.616733"
"3.27","497.5851","1.631833"
"3.3","500.9627","1.6468"
"3.33","504.241","1.6615"
"3.36","507.4445","1.6765"
"3.39","510.4176","1.691567"
"3.42","513.3502","1.7067"
"3.45","516.2072","1.721833"
"3.48","518.8783","1.736867"
"3.51","521.3396","1.751533"
"3.54","523.5775","1.766333"
"3.57","525.7781","1.781633"
"3.6","528.2394","1.796767"
"3.63","530.7571","1.811867"
"3.66","533.3026","1.8265"
"3.69","535.7321","1.841467"
"3.72","538.1846","1.856567"
"3.75","541.0409","1.8718"
"3.78","544.2246","1.886667"
"3.81","547.4631","1.901667"
"3.84","550.7834","1.916467"
"3.87","553.9838","1.9315"
"3.9","557.2287","1.946733"
"3.93","560.6953","1.9618"
"3.96","564.2501","1.977"
"3.99","567.8717","1.991667"
"4.02","571.3757","2.006667"
"4.05","574.8892","2.021367"
"4.08","578.6348","2.036667"
"4.11","582.6513","2.051867"
"4.14","586.6512","2.066767"
"4.17","590.5461","2.0815"
"4.2","594.2114","2.096433"
"4.23","597.9411","2.111733"
"4.26","601.7955","2.126967"
"4.29","605.6746","2.1418"
"4.32","609.3526","2.156667"
"4.35","613.0115","2.171567"
"4.38","616.4249","2.186567"
"4.41","620.0433","2.2017"
"4.44","623.7523","2.216767"
"4.47","627.3977","2.2319"
"4.5","631.0932","2.246567"
"4.53","634.5892","2.261233"
"4.56","637.8428","2.2765"
"4.59","641.1083","2.291667"
"4.62","644.5876","2.306967"
"4.65","648.0066","2.321767"
"4.68","651.207","2.3365"
"4.71","654.13","2.351467"
"4.74","657.3447","2.366833"
"4.77","660.7961","2.3818"
"4.8","664.169","2.396767"
"4.83","667.1985","2.411467"
"4.86","669.7464","2.4264"
"4.89","672.2371","2.441433"
"4.92","674.8986","2.4566"
"4.95","677.9122","2.4718"
"4.98","680.8559","2.4867"
"5.01","683.8616","2.501667"
"5.04","686.7663","2.516367"
"5.07","689.787","2.5316"
"5.1","692.9485","2.546867"
"5.13","696.3118","2.561967"
"5.16","699.3771","2.5766"
"5.19","702.0505","2.591533"
"5.22","704.7772","2.606567"
"5.25","707.6287","2.621833"
"5.28","710.7401","2.636633"
"5.31","713.857","2.651633"
"5.34","716.97","2.666467"
"5.37","720.1147","2.6815"
"5.4","723.2881","2.696767"
"5.43","726.5647","2.711867"
"5.46","729.8573","2.726967"
"5.49","732.9377","2.741833"
"5.52","735.9124","2.756567"
"5.55","738.7519","2.771467"
"5.58","741.5509","2.786633"
"5.61","744.6989","2.801867"
"5.64","747.8237","2.816767"
"5.67","750.9065","2.831467"
"5.7","753.7111","2.846367"
"5.73","756.4871","2.861667"
"5.76","759.3592","2.876867"
"5.79","762.5762","2.891767"
"5.82","765.7242","2.906567"
"5.85","768.6774","2.921567"
"5.88","771.5352","2.936533"
"5.91","774.231","2.951767"
"5.94","776.8949","2.966767"
"5.97","779.3959","2.981833"
"6","781.7443","2.9965"
"6.03","783.879","3.011433"
"6.06","786.1312","3.0264"
"6.09","788.3644","3.0417"
"6.12","790.7844","3.056967"
"6.15","793.0215","3.071667"
"6.18","795.0465","3.086567"
"6.21","796.8815","3.101467"
"6.24","798.6911","3.1168"
"6.27","800.6239","3.131867"
"6.3","802.5265","3.1468"
"6.33","804.073","3.161533"
"6.36","805.4439","3.176467"
"6.39","806.6503","3.191533"
"6.42","807.8702","3.206667"
"6.45","809.0886","3.2219"
"6.48","810.229","3.236867"
"6.51","811.1691","3.251667"
"6.54","811.8097","3.266333"
"6.57","812.42","3.2817"
"6.6","813.2108","3.296833"
"6.63","814.0024","3.311867"
"6.66","814.5873","3.326567"
"6.69","814.9059","3.341533"
"6.72","815.022","3.356567"
"6.75","815.0991","3.3718"
"6.78","799.4199","3.387833"
"6.81","284.1226","3.401833"
"6.84","21.68337","3.416567"
"6.87","18.92169","3.431467"
"6.9","18.28432","3.446633"
"6.93","18.26207","3.461767"
"6.96","17.89331","3.476967"
"6.99","17.6843","3.491667"
"7.02","17.83609","3.506633"
"7.05","17.95133","3.521367"
"7.08","17.70894","3.536633"
"7.11","17.60562","3.551833"
"7.14","17.79159","3.566767"
"7.17","17.76854","3.581467"
"7.2","17.60006","3.5964"
"7.23","17.59768","3.611633"
"7.26","17.6994","3.626833"
"7.29","17.67476","3.641767"
"7.32","17.57463","3.6566"
"7.35","17.58178","3.671567"
"7.38","17.66602","3.686533"
"7.41","17.65013","3.701733"
"7.44","17.58417","3.7168"
"7.47","17.62629","3.731833"
"7.5","17.69066","3.746533"
"7.53","17.6692","3.761433"
"7.56","17.64377","3.7766"
"7.59","17.65013","3.7917"
"7.62","17.67794","3.8069"
"7.65","17.66205","3.8217"
"7.68","17.63026","3.8366"
"7.71","17.64139","3.851533"
"7.74","17.64218","3.8667"
"7.77","17.62152","3.8819"
"7.8","17.61675","3.8968"
"7.83","17.61913","3.911567"
"7.86","17.63026","3.926467"
"7.89","17.61436","3.941533"
"7.92","17.63741","3.9567"
"7.95","17.63503","3.971867"
"7.98","17.65013","3.9868"
"8.01","17.65887","4.0016"
"8.04","17.65251","4.016467"
"8.07","17.68669","4.031734"
"8.1","17.68669","4.046834"
"8.13","17.67476","4.061934"
"8.16","17.66682","4.076567"
"8.19","17.65728","4.091467"
"8.22","17.67079","4.1065"
"8.25","17.64615","4.121667"
"8.28","17.64456","4.1368"
"8.31","17.64139","4.1516"
"8.34","17.63662","4.1664"
"8.37","17.639","4.181467"
"8.4","17.64218","4.196633"
"8.43","17.639","4.2118"
"8.46","17.65331","4.226933"
"8.49","17.64456","4.2417"
"8.52","17.66682","4.2566"
"8.55","17.67715","4.2714"
"8.58","17.6692","4.286533"
"8.6","17.66364","4.291"

File: Resin_W_3.csv
"1 _ 1",,
"Time","Force","Stroke"
"sec","N","mm"
"0","0.5292892","0.0001"
"0.03","0.5873044","0.01076667"
"0.06","3.527005","0.0259"
"0.09","15.06488","0.04143333"
"0.12","28.92971","0.0567"
"0.15","40.80296","0.0717"
"0.18","48.61275","0.08633333"
"0.21","51.55484","0.1013"
"0.24","51.33708","0.1165667"
"0.27","50.93813","0.1317"
"0.3","52.88522","0.1469333"
"0.33","56.76985","0.1617"
"0.36","58.92356","0.1765"
"0.39","59.07536","0.1914333"
"0.42","59.37735","0.2067333"
"0.45","59.82796","0.2218333"
"0.48","59.08966","0.2367333"
"0.51","59.06184","0.2514667"
"0.54","59.04277","0.2664667"
"0.57","59.06105","0.2816"
"0.6","59.16119","0.2967333"
"0.63","59.21046","0.3118667"
"0.66","59.2351","0.3267667"
"0.69","59.25258","0.3416333"
"0.72","59.27324","0.3563333"
"0.75","59.27801","0.3716667"
"0.78","59.28914","0.3869"
"0.81","59.39325","0.4018667"
"0.84","59.47749","0.4165334"
"0.87","60.07512","0.4314"
"0.9","64.93568","0.4464667"
"0.93","72.02705","0.4617333"
"0.96","79.53326","0.4768333"
"0.99","84.54323","0.4916333"
"1.02","86.86384","0.5064334"
"1.05","89.4324","0.5214334"
"1.08","96.50549","0.5366333"
"1.11","109.2935","0.5517333"
"1.14","123.3673","0.5668333"
"1.17","137.5421","0.5815667"
"1.2","149.9398","0.5965334"
"1.23","162.3503","0.6113333"
"1.26","175.3147","0.6264667"
"1.29","188.3602","0.6417667"
"1.32","201.2706","0.6567"
"1.35","213.8821","0.6713667"
"1.38","225.9684","0.6863"
"1.41","237.8305","0.7016333"
"1.44","249.5901","0.7169"
"1.47","261.0397","0.7318"
"1.5","271.9506","0.7466334"
"1.53","282.2725","0.7615333"
"1.56","292.1335","0.7765667"
"1.59","301.7084","0.7916334"
"1.62","310.7993","0.8068"
"1.65","319.1606","0.8218"
"1.68","326.8178","0.8365334"
"1.71","333.4498","0.8512667"
"1.74","339.1179","0.8665"
"1.77","343.9768","0.8817"
"1.8","348.2326","0.8969333"
"1.83","352.3127","0.9117333"
"1.86","355.7467","0.9265667"
"1.89","358.1007","0.9414667"
"1.92","360.1209","0.9567333"
"1.95","362.1205","0.9718667"
"1.98","364.2559","0.9867"
"2.01","366.5527","1.0014"
"2.04","368.8455","1.016367"
"2.07","371.1804","1.0315"
"2.1","373.5081","1.0467"
"2.13","375.7087","1.0619"
"2.16","377.6789","1.0767"
"2.19","379.7738","1.0916"
"2.22","381.7964","1.106367"
"2.25","384.4969","1.121633"
"2.28","387.9094","1.136867"
"2.31","391.7798","1.1519"
"2.34","396.0729","1.166467"
"2.37","399.9877","1.1813"
"2.4","403.5433","1.196367"
"2.43","407.2317","1.2116"
"2.46","411.1258","1.226667"
"2.49","415.2751","1.2416"
"2.52","419.3083","1.2564"
"2.55","423.3026","1.271467"
"2.58","427.5497","1.286633"
"2.61","432.0892","1.3018"
"2.64","436.8202","1.316967"
"2.67","441.6132","1.331733"
"2.7","446.225","1.3465"
"2.73","450.716","1.361367"
"2.76","455.3183","1.376567"
"2.79","460.043","1.391833"
"2.82","464.6285","1.4067"
"2.85","469.0591","1.421433"
"2.88","472.6887","1.4364"
"2.91","476.1497","1.4517"
"2.94","479.7959","1.466867"
"2.97","483.938","1.481767"
"3","487.9435","1.4966"
"3.03","491.9497","1.5115"
"3.06","495.8328","1.5265"
"3.09","499.2151","1.541633"
"3.12","502.1318","1.556833"
"3.15","505.1382","1.5718"
"3.18","508.0525","1.586533"
"3.21","510.8666","1.601367"
"3.24","513.7468","1.616467"
"3.27","516.7492","1.631667"
"3.3","519.9011","1.647033"
"3.33","522.7288","1.661567"
"3.36","525.2361","1.6765"
"3.39","527.6315","1.691367"
"3.42","530.3176","1.7067"
"3.45","533.3225","1.721867"
"3.48","536.6214","1.736667"
"3.51","539.7526","1.751367"
"3.54","542.7321","1.766433"
"3.57","545.6956","1.7815"
"3.6","548.8141","1.796667"
"3.63","552.0383","1.8118"
"3.66","555.257","1.826667"
"3.69","558.4502","1.841567"
"3.72","561.4766","1.856267"
"3.75","564.7183","1.871567"
"3.78","568.2349","1.886767"
"3.81","571.8994","1.901867"
"3.84","575.691","1.9165"
"3.87","579.2427","1.931433"
"3.9","582.8166","1.9465"
"3.93","586.5797","1.9618"
"3.96","590.5835","1.976733"
"3.99","594.5635","1.991733"
"4.02","598.4561","2.006533"
"4.05","602.2954","2.021433"
"4.08","606.2301","2.036633"
"4.11","610.3762","2.0518"
"4.14","614.6526","2.0669"
"4.17","618.8766","2.081633"
"4.2","622.9695","2.096533"
"4.23","627.0703","2.111333"
"4.26","631.3173","2.1266"
"4.29","635.8448","2.141867"
"4.32","640.44","2.156733"
"4.35","644.8777","2.171467"
"4.38","649.0405","2.1864"
"4.41","653.1787","2.201667"
"4.44","657.5012","2.216933"
"4.47","661.8842","2.2318"
"4.5","666.0922","2.246567"
"4.53","670.1176","2.2615"
"4.56","674.0491","2.2764"
"4.59","678.1093","2.291633"
"4.62","682.2665","2.3068"
"4.65","686.4532","2.321767"
"4.68","690.4952","2.336533"
"4.71","694.2996","2.351233"
"4.74","698.0618","2.366467"
"4.77","702.1395","2.381567"
"4.8","706.257","2.396867"
"4.83","710.2004","2.411667"
"4.86","713.8054","2.426533"
"4.89","717.1003","2.441467"
"4.92","720.5391","2.456767"
"4.95","724.1193","2.471733"
"4.98","727.791","2.486667"
"5.01","731.3061","2.5014"
"5.04","734.6686","2.5164"
"5.07","738.043","2.531533"
"5.1","741.4874","2.5467"
"5.13","745.1002","2.5619"
"5.16","748.5588","2.576767"
"5.19","751.7759","2.591633"
"5.22","754.7371","2.6063"
"5.25","757.8651","2.621667"
"5.28","761.1616","2.636867"
"5.31","764.5559","2.6519"
"5.34","767.8549","2.666467"
"5.37","770.8065","2.6814"
"5.4","773.743","2.696467"
"5.43","776.7455","2.711767"
"5.46","779.9379","2.726633"
"5.49","783.0127","2.741733"
"5.52","786.1105","2.756467"
"5.55","788.962","2.7715"
"5.58","791.7778","2.786667"
"5.61","794.5776","2.8018"
"5.64","797.3846","2.816933"
"5.67","799.9825","2.831767"
"5.7","802.455","2.846367"
"5.73","804.7438","2.861367"
"5.76","807.2026","2.876533"
"5.79","810.0009","2.8918"
"5.82","812.6712","2.9067"
"5.85","815.0443","2.921367"
"5.88","816.9929","2.936333"
"5.91","819.006","2.951733"
"5.94","821.0103","2.966833"
"5.97","823.0607","2.981767"
"6","824.8091","2.9966"
"6.03","826.358","3.011467"
"6.06","827.6359","3.0264"
"6.09","828.89","3.041633"
"6.12","830.2617","3.0568"
"6.15","831.5054","3.0718"
"6.18","832.5378","3.0865"
"6.21","833.2729","3.101333"
"6.24","834.012","3.116467"
"6.27","834.7694","3.131733"
"6.3","835.6953","3.147"
"6.33","836.4153","3.1617"
"6.36","836.8468","3.1766"
"6.39","837.0034","3.191533"
"6.42","837.1345","3.206833"
"6.45","837.2712","3.2217"
"6.48","837.2656","3.2367"
"6.51","836.9899","3.2514"
"6.54","836.6339","3.266433"
"6.57","836.1959","3.281533"
"6.6","835.793","3.296633"
"6.63","835.4426","3.311867"
"6.66","834.8457","3.327167"
"6.69","618.275","3.342067"
"6.72","49.73332","3.356467"
"6.75","24.84242","3.3716"
"6.78","24.3028","3.386833"
"6.81","23.15998","3.401967"
"6.84","22.93666","3.416533"
"6.87","23.17031","3.4314"
"6.9","23.17667","3.446533"
"6.93","22.89216","3.461667"
"6.96","22.84924","3.4768"
"6.99","23.07256","3.491633"
"7.02","22.98832","3.5065"
"7.05","22.7801","3.521333"
"7.08","22.85878","3.5366"
"7.11","22.95176","3.551733"
"7.14","22.85401","3.5668"
"7.17","22.77533","3.5816"
"7.2","22.82063","3.5965"
"7.23","22.88342","3.611367"
"7.26","22.83812","3.6266"
"7.29","22.77374","3.641867"
"7.32","22.80076","3.656733"
"7.35","22.87785","3.671433"
"7.38","22.86116","3.6864"
"7.41","22.8405","3.701633"
"7.44","22.88024","3.7169"
"7.47","22.8858","3.731833"
"7.5","22.8556","3.7466"
"7.53","22.85163","3.761533"
"7.56","22.8556","3.776567"
"7.59","22.84288","3.791633"
"7.62","22.81348","3.806867"
"7.65","22.81666","3.821867"
"7.68","22.85004","3.8366"
"7.71","22.84527","3.851233"
"7.74","22.82461","3.866533"
"7.77","22.82937","3.8817"
"7.8","22.84288","3.896933"
"7.83","22.85401","3.911667"
"7.86","22.8556","3.9265"
"7.89","22.86116","3.941467"
"7.92","22.85163","3.956733"
"7.95","22.86673","3.971667"
"7.97","22.87149","3.9745"