Folder: Modified-Jubilee/degradation_testing/tensile_testing/Resin/Resin_Acetone (part 2)

File: Resin_A_3.csv
"1 _ 1",,
"Time","Force","Stroke"
"sec","N","mm"
"0","0.4959106","0.0001"
"0.03","0.5865097","0.0108"
"0.06","3.681183","0.02596667"
"0.09","15.58622","0.0412"
"0.12","29.61954","0.05663333"
"0.15","42.7707","0.07176667"
"0.18","53.52179","0.0868"
"0.21","55.782","0.1015"
"0.24","55.7812","0.1165333"
"0.27","55.74147","0.1315"
"0.3","55.81061","0.1466333"
"0.33","55.813","0.1618333"
"0.36","55.82015","0.1767667"
"0.39","55.86465","0.1915333"
"0.42","55.88611","0.2062667"
"0.45","55.89326","0.2215667"
"0.48","55.91552","0.2367333"
"0.51","55.90916","0.2519333"
"0.54","55.9028","0.2667"
"0.57","55.86227","0.2815333"
"0.6","55.84717","0.2965"
"0.63","55.86147","0.3117333"
"0.66","55.93141","0.3268"
"0.69","55.96002","0.3416667"
"0.72","55.97989","0.3564333"
"0.75","56.00532","0.3713667"
"0.78","56.02757","0.3866333"
"0.81","56.05539","0.4017333"
"0.84","56.05857","0.4169333"
"0.87","56.08559","0.4316667"
"0.9","56.15234","0.4466"
"0.93","57.07423","0.4613333"
"0.96","64.46997","0.4766333"
"0.99","72.7121","0.4918333"
"1.02","80.91768","0.5067667"
"1.05","94.3327","0.5214334"
"1.08","107.1326","0.5363333"
"1.11","119.7735","0.5514"
"1.14","132.8071","0.5667"
"1.17","146.2722","0.5817333"
"1.2","159.4257","0.5966333"
"1.23","172.65","0.6114666"
"1.26","185.3355","0.6264667"
"1.29","198.2633","0.6416"
"1.32","211.0171","0.6567333"
"1.35","223.7693","0.6719"
"1.38","236.0908","0.6866"
"1.41","247.9156","0.7013667"
"1.44","259.3644","0.7164"
"1.47","270.6846","0.7316"
"1.5","282.1819","0.7468667"
"1.53","293.3367","0.7617"
"1.56","304.0322","0.7765"
"1.59","314.0275","0.7914333"
"1.62","323.7708","0.8067334"
"1.65","333.3434","0.8219"
"1.68","342.6226","0.8367"
"1.71","351.1317","0.8515667"
"1.74","358.7675","0.8664667"
"1.77","365.4083","0.8815"
"1.8","371.2892","0.8966333"
"1.83","377.2012","0.9118"
"1.86","382.634","0.9267667"
"1.89","387.6527","0.9415"
"1.92","392.1501","0.9563"
"1.95","396.537","0.9715"
"1.98","400.7459","0.9867"
"2.01","404.8149","1.002"
"2.04","408.4198","1.0165"
"2.07","411.2132","1.031567"
"2.1","413.5712","1.0465"
"2.13","415.6033","1.061733"
"2.16","417.1053","1.076767"
"2.19","418.0614","1.091633"
"2.22","418.3451","1.1064"
"2.25","418.7099","1.121433"
"2.28","419.5754","1.136567"
"2.31","420.9137","1.1517"
"2.34","423.2295","1.166867"
"2.37","426.232","1.181633"
"2.4","429.2425","1.196467"
"2.43","432.5143","1.211333"
"2.46","436.4649","1.2266"
"2.49","441.0036","1.2418"
"2.52","445.7021","1.256733"
"2.55","450.3989","1.271467"
"2.58","454.824","1.286367"
"2.61","459.0686","1.301567"
"2.64","463.2696","1.316767"
"2.67","467.4983","1.3318"
"2.7","471.801","1.346733"
"2.73","475.9089","1.361533"
"2.76","479.7395","1.376467"
"2.79","483.7251","1.391667"
"2.82","487.9745","1.4067"
"2.85","492.2636","1.421833"
"2.88","496.4153","1.4365"
"2.91","500.3119","1.451467"
"2.94","504.3181","1.4664"
"2.97","508.3378","1.481633"
"3","512.5006","1.4969"
"3.03","516.4957","1.5117"
"3.06","520.0751","1.526467"
"3.09","523.0697","1.541433"
"3.12","525.8513","1.556733"
"3.15","528.4707","1.5719"
"3.18","530.9105","1.586767"
"3.21","532.9585","1.601533"
"3.24","534.811","1.616433"
"3.27","536.627","1.631433"
"3.3","538.7203","1.646533"
"3.33","541.3445","1.661767"
"3.36","544.3287","1.676733"
"3.39","547.5974","1.6915"
"3.42","550.8836","1.7063"
"3.45","554.4233","1.721533"
"3.48","558.2698","1.736667"
"3.51","562.2347","1.751867"
"3.54","566.3602","1.7666"
"3.57","570.3727","1.781533"
"3.6","574.2471","1.7964"
"3.63","578.3002","1.811733"
"3.66","582.6402","1.8266"
"3.69","586.9841","1.841667"
"3.72","591.2487","1.8564"
"3.75","595.4401","1.871433"
"3.78","599.7372","1.8866"
"3.81","604.0867","1.901667"
"3.84","608.5165","1.916967"
"3.87","612.8391","1.931733"
"3.9","616.8866","1.9466"
"3.93","620.6465","1.9613"
"3.96","624.5112","1.9767"
"3.99","628.5548","1.991833"
"4.02","632.623","2.006867"
"4.05","636.6293","2.0214"
"4.08","640.2628","2.0363"
"4.11","643.9034","2.051533"
"4.14","647.6514","2.066867"
"4.17","651.6147","2.0816"
"4.2","655.3968","2.096667"
"4.23","659.1908","2.111533"
"4.26","662.9157","2.126533"
"4.29","666.7868","2.141667"
"4.32","670.7159","2.1568"
"4.35","674.5227","2.1719"
"4.38","678.1157","2.1866"
"4.41","681.4067","2.201267"
"4.44","684.5808","2.216367"
"4.47","687.9202","2.231567"
"4.5","691.3781","2.246833"
"4.53","694.8209","2.261633"
"4.56","698.0268","2.276467"
"4.59","700.7686","2.2914"
"4.62","703.7719","2.306767"
"4.65","707.051","2.321767"
"4.68","710.3571","2.336733"
"4.71","713.3826","2.3515"
"4.74","716.3318","2.3664"
"4.77","719.1857","2.3814"
"4.8","722.2088","2.3966"
"4.83","725.5435","2.4118"
"4.86","728.9227","2.426767"
"4.89","732.1691","2.4415"
"4.92","735.1987","2.456333"
"4.95","738.3712","2.4715"
"4.98","741.5565","2.486767"
"5.01","744.9643","2.502033"
"5.04","748.229","2.5166"
"5.07","751.2275","2.531567"
"5.1","754.0377","2.5465"
"5.13","756.8788","2.561767"
"5.16","759.7422","2.576667"
"5.19","762.5405","2.591633"
"5.22","765.0995","2.606433"
"5.25","767.6299","2.6214"
"5.28","770.158","2.636533"
"5.31","772.6812","2.651667"
"5.34","775.2649","2.666833"
"5.37","777.7087","2.6818"
"5.4","780.1096","2.696567"
"5.43","782.3229","2.7113"
"5.46","784.4861","2.726633"
"5.49","786.9244","2.741867"
"5.52","789.3109","2.756833"
"5.55","791.5513","2.771467"
"5.58","793.3744","2.786333"
"5.61","795.0417","2.801533"
"5.64","796.8275","2.816767"
"5.67","798.866","2.8317"
"5.7","800.7534","2.8466"
"5.73","802.455","2.861433"
"5.76","803.8362","2.8764"
"5.79","805.1499","2.891633"
"5.82","806.5343","2.906667"
"5.85","807.9124","2.9218"
"5.88","809.1076","2.936533"
"5.91","809.9962","2.951533"
"5.94","810.8687","2.966267"
"5.97","811.6126","2.9816"
"6","812.4693","2.9969"
"6.03","813.2386","3.0117"
"6.06","813.7043","3.026533"
"6.09","813.822","3.041433"
"6.12","813.9944","3.056767"
"6.15","814.2551","3.071867"
"6.18","814.5507","3.0867"
"6.21","814.4792","3.101533"
"6.24","814.3687","3.116533"
"6.27","814.1501","3.131433"
"6.3","813.9761","3.146667"
"6.33","813.8243","3.161833"
"6.36","813.5057","3.176833"
"6.39","812.9549","3.191633"
"6.42","812.1975","3.206267"
"6.45","811.3527","3.221533"
"6.48","810.5421","3.236767"
"6.51","809.9191","3.251967"
"6.54","809.2276","3.2666"
"6.57","808.1953","3.281533"
"6.6","806.4405","3.297167"
"6.63","525.4221","3.312033"
"6.66","33.56377","3.326833"
"6.69","21.13104","3.3417"
"6.72","20.94587","3.356367"
"6.75","20.03431","3.3714"
"6.78","19.68543","3.386633"
"6.81","19.83961","3.4017"
"6.84","19.94213","3.416933"
"6.87","19.73311","3.4317"
"6.9","19.57893","3.446567"
"6.93","19.73549","3.461333"
"6.96","19.77046","3.4766"
"6.99","19.57655","3.491767"
"7.02","19.56383","3.506767"
"7.05","19.67669","3.5214"
"7.08","19.64569","3.536267"
"7.11","19.51933","3.551467"
"7.14","19.50582","3.566767"
"7.17","19.57019","3.581767"
"7.2","19.60993","3.5967"
"7.23","19.54953","3.611533"
"7.26","19.54953","3.6265"
"7.29","19.5996","3.641667"
"7.32","19.61867","3.656833"
"7.35","19.57655","3.6719"
"7.38","19.57417","3.686567"
"7.41","19.61946","3.701367"
"7.44","19.61231","3.716433"
"7.47","19.57893","3.731567"
"7.5","19.5686","3.7468"
"7.53","19.57496","3.761767"
"7.56","19.5686","3.7765"
"7.59","19.54079","3.7914"
"7.62","19.55509","3.8067"
"7.65","19.5837","3.821867"
"7.68","19.57973","3.8368"
"7.71","19.59085","3.851567"
"7.73","19.60993","3.857333"

File: Resin_A_4.csv
"1 _ 1",,
"Time","Force","Stroke"
"sec","N","mm"
"0","0.4895528","6.666667E-05"
"0.03","0.5801519","0.0109"
"0.06","3.351371","0.0261"
"0.09","14.0206","0.04116667"
"0.12","26.98501","0.0564"
"0.15","39.5147","0.0717"
"0.18","50.94687","0.0867"
"0.21","57.63451","0.1014333"
"0.24","58.11374","0.1163333"
"0.27","57.9826","0.1315667"
"0.3","57.67663","0.1467667"
"0.33","57.73942","0.1617667"
"0.36","58.074","0.1767333"
"0.39","58.15188","0.1915333"
"0.42","58.20751","0.2065333"
"0.45","58.21864","0.2217333"
"0.48","58.24487","0.2367667"
"0.51","58.26314","0.2519"
"0.54","58.24487","0.2665333"
"0.57","58.22341","0.2814"
"0.6","58.18685","0.2964"
"0.63","58.21466","0.3116"
"0.66","58.22102","0.3268667"
"0.69","58.22499","0.3417333"
"0.72","58.28142","0.3565333"
"0.75","58.33387","0.3714333"
"0.78","58.36089","0.3867"
"0.81","58.40619","0.4019333"
"0.84","58.45467","0.4167333"
"0.87","58.46183","0.4314667"
"0.9","58.53891","0.4464667"
"0.93","59.67696","0.4614667"
"0.96","65.13358","0.4766"
"0.99","69.55226","0.4918"
"1.02","73.6618","0.5068"
"1.05","81.44379","0.5215"
"1.08","92.60257","0.5363333"
"1.11","105.5439","0.5515333"
"1.14","118.1904","0.5667334"
"1.17","130.0311","0.5819"
"1.2","142.5139","0.5966"
"1.23","153.8626","0.6114666"
"1.26","165.3838","0.6263334"
"1.29","176.9527","0.6416"
"1.32","188.7902","0.6567"
"1.35","200.3169","0.6716334"
"1.38","211.3231","0.6863334"
"1.41","221.8501","0.7014"
"1.44","232.5749","0.7165334"
"1.47","243.4349","0.7317333"
"1.5","253.8975","0.7469333"
"1.53","263.7649","0.7617667"
"1.56","273.0648","0.7766333"
"1.59","282.0206","0.7914"
"1.62","290.7109","0.8066"
"1.65","299.0103","0.8218334"
"1.68","306.658","0.8368"
"1.71","313.8669","0.8514333"
"1.74","320.1326","0.8664"
"1.77","325.551","0.8815333"
"1.8","330.7549","0.8968"
"1.83","336.2465","0.9117666"
"1.86","341.1039","0.9266334"
"1.89","345.0099","0.9415333"
"1.92","348.0856","0.9564334"
"1.95","350.8751","0.9717"
"1.98","353.5398","0.9868"
"2.01","355.9653","1.0019"
"2.04","358.1381","1.016567"
"2.07","359.8889","1.031433"
"2.1","361.6293","1.0464"
"2.13","363.3904","1.061567"
"2.16","365.2231","1.076933"
"2.19","367.0446","1.0917"
"2.22","368.4608","1.106467"
"2.25","369.4439","1.1214"
"2.28","370.5804","1.136667"
"2.31","371.7216","1.151933"
"2.34","372.8382","1.1668"
"2.37","373.7418","1.181433"
"2.4","374.5381","1.196433"
"2.43","375.1882","1.211433"
"2.46","375.9996","1.2266"
"2.49","377.3602","1.241767"
"2.52","378.9433","1.256733"
"2.55","380.675","1.271467"
"2.58","382.5839","1.2863"
"2.61","384.9673","1.301533"
"2.64","388.0898","1.316733"
"2.67","391.3109","1.3319"
"2.7","394.4612","1.346667"
"2.73","397.4668","1.361567"
"2.76","400.2444","1.3765"
"2.79","403.1451","1.391733"
"2.82","406.2637","1.406733"
"2.85","409.4633","1.4217"
"2.88","412.6104","1.436467"
"2.91","415.7567","1.4514"
"2.94","419.0032","1.4666"
"2.97","422.4936","1.4817"
"3","426.2678","1.496867"
"3.03","430.0308","1.5117"
"3.06","433.6532","1.526567"
"3.09","437.2072","1.541367"
"3.12","440.9393","1.556567"
"3.15","444.9232","1.571867"
"3.18","449.0789","1.5868"
"3.21","453.244","1.601467"
"3.24","457.1581","1.6163"
"3.27","460.9418","1.631533"
"3.3","464.8201","1.646833"
"3.33","468.9161","1.661733"
"3.36","472.8667","1.676667"
"3.39","476.6186","1.6915"
"3.42","480.326","1.7064"
"3.45","484.1542","1.721633"
"3.48","488.0532","1.7368"
"3.51","492.0284","1.751867"
"3.54","495.9154","1.766533"
"3.57","499.5855","1.7813"
"3.6","503.2054","1.796433"
"3.63","506.9471","1.8115"
"3.66","510.815","1.826833"
"3.69","514.578","1.841733"
"3.72","518.2449","1.856467"
"3.75","521.6956","1.871367"
"3.78","525.2338","1.886733"
"3.81","528.9618","1.901767"
"3.84","532.8719","1.916767"
"3.87","536.9727","1.931567"
"3.9","541.2062","1.946467"
"3.93","545.1465","1.9615"
"3.96","548.9612","1.9766"
"3.99","552.9626","1.991833"
"4.02","556.9291","2.006833"
"4.05","560.8169","2.0215"
"4.08","564.3153","2.036367"
"4.11","568.0919","2.0516"
"4.14","572.0226","2.0668"
"4.17","576.187","2.081967"
"4.2","580.2441","2.096533"
"4.23","584.1136","2.111533"
"4.26","587.8639","2.126467"
"4.29","591.6476","2.141667"
"4.32","595.6578","2.1566"
"4.35","599.7038","2.171733"
"4.38","603.7188","2.1864"
"4.41","607.601","2.201433"
"4.44","611.4332","2.216567"
"4.47","615.4052","2.2318"
"4.5","619.5386","2.2469"
"4.53","623.804","2.261833"
"4.56","627.989","2.276467"
"4.59","631.8275","2.291367"
"4.62","635.581","2.306567"
"4.65","639.6238","2.3218"
"4.68","643.657","2.336767"
"4.71","647.6688","2.351367"
"4.74","651.3929","2.366267"
"4.77","655.1536","2.381467"
"4.8","659.0637","2.396867"
"4.83","663.1931","2.411667"
"4.86","667.096","2.426667"
"4.89","670.8987","2.4415"
"4.92","674.4798","2.456433"
"4.95","678.0283","2.471667"
"4.98","681.7809","2.486767"
"5.01","685.6068","2.5019"
"5.04","689.35","2.5165"
"5.07","692.8961","2.531433"
"5.1","696.5057","2.546333"
"5.13","700.1893","2.561667"
"5.16","704.2154","2.5769"
"5.19","708.1652","2.591733"
"5.22","711.9481","2.606567"
"5.25","715.522","2.621467"
"5.28","719.0935","2.636733"
"5.31","722.7039","2.6519"
"5.34","726.4002","2.666733"
"5.37","729.839","2.681467"
"5.4","733.304","2.6965"
"5.43","736.6506","2.711433"
"5.46","740.041","2.7266"
"5.49","743.6244","2.741767"
"5.52","747.1085","2.756767"
"5.55","750.5258","2.771533"
"5.58","753.634","2.7862"
"5.61","756.7883","2.801567"
"5.64","760.165","2.816767"
"5.67","763.6317","2.831967"
"5.7","766.983","2.8466"
"5.73","769.9521","2.861533"
"5.76","772.6924","2.876467"
"5.79","775.4707","2.8917"
"5.82","778.4597","2.906767"
"5.85","781.3581","2.9216"
"5.88","784.0379","2.9364"
"5.91","786.5755","2.9513"
"5.94","789.0399","2.966533"
"5.97","791.618","2.981633"
"6","794.3105","2.996833"
"6.03","796.8458","3.0117"
"6.06","792.3976","3.027533"
"6.09","359.8658","3.0417"
"6.12","26.54552","3.056667"
"6.15","23.66304","3.071833"
"6.18","22.67838","3.0868"
"6.21","22.47334","3.101467"
"6.24","22.06008","3.116367"
"6.27","21.9806","3.131567"
"6.3","22.15783","3.146833"
"6.33","22.1316","3.161767"
"6.36","21.90669","3.176667"
"6.39","21.88047","3.191533"
"6.42","22.03862","3.206533"
"6.45","21.98855","3.2216"
"6.48","21.8304","3.236867"
"6.51","21.89716","3.251867"
"6.54","21.97504","3.2666"
"6.57","21.93054","3.281333"
"6.6","21.86219","3.296433"
"6.63","21.88841","3.311567"
"6.66","21.95358","3.3269"
"6.69","21.9361","3.3417"
"6.72","21.87093","3.356467"
"6.75","21.91146","3.3714"
"6.78","21.95835","3.3867"
"6.81","21.89477","3.401833"
"6.84","21.86616","3.416767"
"6.87","21.88921","3.431533"
"6.9","21.9059","3.4465"
"6.93","21.87252","3.461467"
"6.96","21.85901","3.4766"
"6.99","21.87332","3.491867"
"7.02","21.90193","3.506767"
"7.05","21.89795","3.5215"
"7.08","21.8908","3.536333"
"7.11","21.88444","3.5516"
"7.14","21.90828","3.566733"
"7.17","21.91067","3.581867"
"7.2","21.89716","3.596567"
"7.23","21.89557","3.611433"
"7.26","21.90431","3.625433"
"7.27","21.8908","3.6267"

File: Resin_A_5.csv
"1 _ 1",,
"Time","Force","Stroke"
"sec","N","mm"
"0","-2.130667","6.666667E-05"
"0.03","-2.001921","0.01153333"
"0.06","2.457301","0.0266"
"0.09","14.99097","0.0417"
"0.12","28.34717","0.05636667"
"0.15","41.09303","0.07126667"
"0.18","53.04177","0.0865"
"0.21","59.57206","0.1017"
"0.24","59.89949","0.1169"
"0.27","60.01155","0.1317333"
"0.3","59.98691","0.1466333"
"0.33","60.10215","0.1614333"
"0.36","60.23169","0.1767667"
"0.39","60.22294","0.1919"
"0.42","60.24043","0.2069333"
"0.45","60.23884","0.2215667"
"0.48","60.26347","0.2364"
"0.51","60.25871","0.2515667"
"0.54","60.24758","0.2667667"
"0.57","60.2603","0.2818334"
"0.6","60.25155","0.2967333"
"0.63","60.30083","0.3115333"
"0.66","60.38984","0.3265333"
"0.69","60.38825","0.3418"
"0.72","60.41845","0.3568333"
"0.75","60.43196","0.3720333"
"0.78","60.45182","0.3867"
"0.81","60.43911","0.4016"
"0.84","60.43434","0.4164333"
"0.87","60.4407","0.4316667"
"0.9","60.52971","0.4468"
"0.93","61.90777","0.4617667"
"0.96","66.27401","0.4764667"
"0.99","71.42305","0.4914"
"1.02","80.7039","0.5066333"
"1.05","93.47995","0.5218667"
"1.08","106.5564","0.5368667"
"1.11","119.8363","0.5516334"
"1.14","132.6776","0.5665"
"1.17","145.3487","0.5815333"
"1.2","157.9746","0.5967"
"1.23","170.5384","0.6118333"
"1.26","183.053","0.6268"
"1.29","195.2696","0.6414334"
"1.32","207.1412","0.6563333"
"1.35","218.9469","0.6714666"
"1.38","230.7963","0.6867"
"1.41","242.8111","0.7019333"
"1.44","254.5889","0.7167333"
"1.47","266.0266","0.7315"
"1.5","276.9311","0.7465"
"1.53","287.7442","0.7617667"
"1.56","298.5072","0.7769"
"1.59","309.0437","0.7917667"
"1.62","319.2361","0.8065"
"1.65","329.0947","0.8215"
"1.68","338.6942","0.8366"
"1.71","348.1444","0.8517"
"1.74","357.4824","0.8669"
"1.77","366.4764","0.8818"
"1.8","375.0594","0.8966667"
"1.83","383.0989","0.9113667"
"1.86","391.0041","0.9266334"
"1.89","398.7114","0.9418333"
"1.92","406.0984","0.9569667"
"1.95","412.8003","0.9716333"
"1.98","418.2998","0.9865333"
"2.01","423.0777","1.001467"
"2.04","427.3319","1.016733"
"2.07","431.1991","1.031833"
"2.1","434.5369","1.0467"
"2.13","437.0833","1.061433"
"2.16","438.7633","1.076433"
"2.19","439.624","1.0917"
"2.22","439.8092","1.106833"
"2.25","439.1718","1.121967"
"2.28","437.6872","1.136633"
"2.31","435.8681","1.151667"
"2.34","434.3184","1.166367"
"2.37","433.2455","1.181633"
"2.4","432.9769","1.196833"
"2.43","433.6747","1.211733"
"2.46","435.5804","1.226433"
"2.49","438.1728","1.241367"
"2.52","441.5878","1.256633"
"2.55","445.4875","1.271933"
"2.58","449.9713","1.2868"
"2.61","454.9066","1.3016"
"2.64","459.9118","1.316567"
"2.67","464.8383","1.3315"
"2.7","469.9771","1.346733"
"2.73","475.297","1.361833"
"2.76","480.6042","1.376867"
"2.79","485.7349","1.3916"
"2.82","490.5995","1.406333"
"2.85","495.5991","1.4215"
"2.88","501.0851","1.4367"
"2.91","506.9272","1.452"
"2.94","512.5475","1.4667"
"2.97","517.8571","1.481633"
"3","522.9871","1.496533"
"3.03","528.2458","1.5118"
"3.06","533.6436","1.526867"
"3.09","539.1049","1.541733"
"3.12","544.3215","1.556433"
"3.15","549.3688","1.571433"
"3.18","554.4631","1.5866"
"3.21","559.6002","1.6017"
"3.24","564.6364","1.6169"
"3.27","569.485","1.631833"
"3.3","574.2137","1.646633"
"3.33","578.804","1.661433"
"3.36","583.4921","1.6766"
"3.39","587.7956","1.691833"
"3.42","591.8614","1.707033"
"3.45","595.9121","1.721467"
"3.48","599.2675","1.736433"
"3.51","602.7762","1.7515"
"3.54","606.509","1.766767"
"3.57","610.501","1.7818"
"3.6","614.4007","1.796733"
"3.63","618.0739","1.811433"
"3.66","621.2719","1.826533"
"3.69","624.5597","1.8416"
"3.72","628.0001","1.856833"
"3.75","631.5303","1.871967"
"3.78","634.9977","1.886633"
"3.81","637.9803","1.901467"
"3.84","640.6577","1.916367"
"3.87","643.7191","1.931533"
"3.9","647.0513","1.9469"
"3.93","650.4472","1.961767"
"3.96","653.7851","1.9765"
"3.99","656.7987","1.991433"
"4.02","659.7948","2.006733"
"4.05","662.8497","2.0219"
"4.08","666.0231","2.0369"
"4.11","669.0406","2.051667"
"4.14","671.9581","2.066633"
"4.17","674.8144","2.0815"
"4.2","677.7875","2.096733"
"4.23","681.0411","2.111767"
"4.26","684.2709","2.126833"
"4.29","687.4832","2.141567"
"4.32","690.5246","2.156467"
"4.35","693.7258","2.171467"
"4.38","696.8824","2.186767"
"4.41","700.2417","2.202"
"4.44","703.5168","2.216667"
"4.47","706.5153","2.2316"
"4.5","709.3477","2.2465"
"4.53","712.3097","2.261867"
"4.56","715.4735","2.2768"
"4.59","718.7263","2.2918"
"4.62","721.7939","2.3064"
"4.65","724.8394","2.321433"
"4.68","727.8347","2.336533"
"4.71","731.0279","2.3517"
"4.74","734.3563","2.366867"
"4.77","737.6377","2.381733"
"4.8","740.7673","2.396533"
"4.83","743.7507","2.411367"
"4.86","746.7985","2.4266"
"4.89","749.9957","2.441767"
"4.92","753.0833","2.4569"
"4.95","756.1262","2.4716"
"4.98","758.8943","2.486467"
"5.01","761.5272","2.5015"
"5.04","764.1546","2.516833"
"5.07","767.0538","2.5317"
"5.1","769.7383","2.546667"
"5.13","772.3713","2.561533"
"5.16","774.8421","2.5765"
"5.19","777.3034","2.5917"
"5.22","779.802","2.606833"
"5.25","782.2855","2.621967"
"5.28","784.6379","2.636733"
"5.31","786.5953","2.651633"
"5.34","788.4073","2.666367"
"5.37","790.2137","2.681667"
"5.4","792.199","2.6969"
"5.43","794.1349","2.711733"
"5.46","795.9382","2.7265"
"5.49","797.3941","2.741433"
"5.52","798.8437","2.7567"
"5.55","800.2877","2.771933"
"5.58","801.8351","2.786767"
"5.61","803.0748","2.8017"
"5.64","804.2828","2.8166"
"5.67","805.2126","2.831533"
"5.7","805.9414","2.847167"
"5.73","591.2479","2.862367"
"5.76","48.13353","2.8769"
"5.79","25.90179","2.891633"
"5.82","25.60774","2.906333"
"5.85","24.37671","2.9215"
"5.88","24.18518","2.9367"
"5.91","24.4387","2.9519"
"5.94","24.41645","2.9667"
"5.97","24.12319","2.9815"
"6","24.06518","2.996467"
"6.03","24.26783","3.011767"
"6.06","24.18439","3.026867"
"6.09","23.97935","3.041733"
"6.12","24.05326","3.056467"
"6.15","24.17088","3.0714"
"6.18","24.10253","3.086567"
"6.21","24.0016","3.1017"
"6.24","24.05326","3.116933"
"6.27","24.13114","3.131767"
"6.3","24.08266","3.1466"
"6.33","24.04451","3.161433"
"6.36","24.07551","3.176667"
"6.39","24.13432","3.191933"
"6.42","24.08663","3.206967"
"6.45","24.03736","3.2216"
"6.48","24.07789","3.2365"
"6.51","24.09379","3.2516"
"6.54","24.07312","3.2668"
"6.57","24.0318","3.281733"
"6.6","24.05087","3.2967"
"6.63","24.05961","3.3115"
"6.66","24.04849","3.3265"
"6.69","24.03736","3.3417"
"6.72","24.05723","3.356767"
"6.75","24.08743","3.371967"
"6.78","24.08504","3.3867"
"6.81","24.0763","3.401433"
"6.84","24.08425","3.416467"
"6.87","24.11127","3.4316"
"6.9","24.09617","3.4469"
"6.93","24.08187","3.461833"
"6.96","24.06915","3.4765"
"6.99","24.07074","3.491367"
"7.02","24.05802","3.5067"
"7.05","24.03577","3.521833"
"7.08","24.05961","3.536833"
"7.11","24.06041","3.551567"
"7.14","24.05802","3.5665"
"7.17","24.05961","3.581467"
"7.2","24.08187","3.596667"
"7.23","24.10412","3.611733"
"7.26","24.09617","3.625233"
"7.27","24.09617","3.6262"